File: EC-MS Data/Graphite vs Li in EC-Free + CO2/Raw EC/EC098_EC_Free_CO2_02_CV_C01.mpt
EC-Lab ASCII FILE
Nb header lines : 64

Cyclic Voltammetry

Run on channel : 1 (SN 39219)
User :
CE vs. WE compliance from -10 V to 10 V
Electrode connection : standard
Ewe ctrl range : min = 0.00 V, max = 5.00 V
Safety Limits :
	Do not start on E overload
Acquisition started on : 10/18/2022 11:10:26.788
Technique started on : 10/18/2022 11:50:26.939
Loaded Setting File :  D:\EC-Lab\Faraday\Graphite vs Li\EC096\EC096 LP57 + CO2.mps
Saved on :
	File : EC098_EC_Free_CO2_02_CV_C01.mpr
	Directory : D:\EC-Lab\Faraday\Graphite vs Li\EC098\
	Host : 192.109.209.130
Device : SP-150 (SN 1485)
Address : 192.109.209.135
EC-Lab for windows v11.36 (software)
Internet server v11.36 (firmware)
Command interpretor v11.36 (firmware)
Electrode material : Au/Pd
Initial state :
Electrolyte : NaCl (0.2M)
Comments : Fe(CN)63-/Fe(CN)64- 5.10-3 M
Reference electrode : SCE Saturated Calomel Electrode (0.241 V)
Electrode surface area : 0.001 cm²
Characteristic mass : 0.001 g
Equivalent Weight : 0.000 g/eq.
Density : 0.000 g/cm3
Text export
   Mode : Standard
   Time format : Elapsed
Cycle Definition : Charge/Discharge alternance
Ei (V)              0.000
vs.                 Eoc
dE/dt               1.000
dE/dt unit          mV/s
E1 (V)              0.010
vs.                 Ref
Step percent        50
N                   10
E range min (V)     0.000
E range max (V)     5.000
I Range             Auto
I Range min         Unset
I Range max         Unset
I Range init        Unset
Bandwidth           4
E2 (V)              1.500
vs.                 Ref
nc cycles           3
Reverse Scan        1
Ef (V)              0.000
vs.                 Eoc

Modify on : 10/18/2022 11:10
No text export
nc cycles           2

mode	ox/red	error	control changes	counter inc.	time/s	control/V	Ewe/V	<I>/mA	cycle number	(Q-Qo)/C	I Range	P/W
2	1	0	0	0	2400.15	2.71673	2.71621	0.000331424	1	0.0000000E+000	14	9.00216e-07
2	1	0	1	0	2416.7	2.70017	2.69961	0.000360977	1	6.14856e-06	14	9.74495e-07
2	1	0	1	0	2433.71	2.68317	2.68267	0.000323212	1	1.16644e-05	14	8.6707e-07
2	1	0	1	0	2450.71	2.66616	2.66563	0.000294049	1	1.66174e-05	14	7.83827e-07
2	1	0	1	0	2467.72	2.64916	2.64858	0.000267674	1	2.10942e-05	14	7.08957e-07
2	1	0	1	0	2484.72	2.63216	2.6316	0.000242782	1	2.51366e-05	14	6.38904e-07
2	1	0	1	0	2501.73	2.61515	2.61461	0.000219533	1	2.87763e-05	14	5.73992e-07
2	1	0	1	0	2518.73	2.59815	2.5976	0.000197654	1	3.20261e-05	14	5.13425e-07
2	1	0	1	0	2535.73	2.58114	2.58061	0.000174591	1	3.4896e-05	14	4.5055e-07
2	1	0	1	0	2552.74	2.56414	2.56357	0.000153242	1	3.73941e-05	14	3.92845e-07
2	1	0	1	0	2569.74	2.54714	2.54657	0.000132491	1	3.9528e-05	14	3.37397e-07
2	1	0	1	0	2586.75	2.53013	2.52957	0.000110786	1	4.13037e-05	14	2.80241e-07
2	1	0	1	0	2603.75	2.51313	2.5126	8.98766e-05	1	4.27226e-05	14	2.25824e-07
2	1	0	1	0	2620.76	2.49612	2.4956	6.94417e-05	1	4.37854e-05	14	1.73299e-07
2	1	0	1	0	2637.76	2.47912	2.47864	4.87744e-05	1	4.44956e-05	14	1.20894e-07
2	1	0	1	0	2654.76	2.46211	2.46161	2.66659e-05	1	4.48493e-05	14	6.56411e-08
2	1	0	1	0	2671.77	2.44511	2.44459	5.68996e-06	1	4.4843e-05	14	1.39096e-08
2	0	0	1	0	2688.77	2.42811	2.42757	-1.53423e-05	1	4.44754e-05	14	-3.72444e-08
2	0	0	1	0	2705.78	2.4111	2.41054	-3.73225e-05	1	4.37397e-05	14	-8.99674e-08
2	0	0	1	0	2722.78	2.3941	2.39354	-5.97905e-05	1	4.26288e-05	14	-1.43111e-07
2	0	0	1	0	2739.78	2.37709	2.37662	-8.13069e-05	1	4.11359e-05	14	-1.93236e-07
2	0	0	1	0	2756.79	2.36009	2.35957	-0.000106187	1	3.92486e-05	14	-2.50557e-07
2	0	0	1	0	2773.79	2.34308	2.34254	-0.00012955	1	3.69627e-05	14	-3.03477e-07
2	0	0	1	0	2790.8	2.32608	2.32557	-0.000152807	1	3.42717e-05	14	-3.55364e-07
2	0	0	1	0	2807.8	2.30908	2.30861	-0.000178823	1	3.11582e-05	14	-4.12831e-07
2	0	0	1	0	2824.81	2.29207	2.2915	-0.000204213	1	2.76138e-05	14	-4.67955e-07
2	0	0	1	0	2841.81	2.27507	2.27453	-0.000229436	1	2.36341e-05	14	-5.21857e-07
2	0	0	1	0	2858.81	2.25806	2.25753	-0.000256664	1	1.92075e-05	14	-5.79427e-07
2	0	0	1	0	2875.82	2.24106	2.24052	-0.00028508	1	1.43158e-05	14	-6.38728e-07
2	0	0	1	0	2892.82	2.22406	2.22353	-0.000312131	1	8.94886e-06	14	-6.94033e-07
2	0	0	1	0	2909.83	2.20705	2.20649	-0.000341497	1	3.09859e-06	14	-7.53508e-07
2	0	0	1	0	2926.83	2.19005	2.18952	-0.000370803	1	-3.24826e-06	14	-8.11879e-07
2	0	0	1	0	2943.84	2.17304	2.17249	-0.000400806	1	-1.00955e-05	14	-8.70746e-07
2	0	0	1	0	2960.84	2.15604	2.15557	-0.000431539	1	-1.74634e-05	14	-9.30211e-07
2	0	0	1	0	2977.84	2.13903	2.13848	-0.000464539	1	-2.5365e-05	14	-9.93404e-07
2	0	0	1	0	2994.85	2.12203	2.12149	-0.000499384	1	-3.38414e-05	14	-1.05944e-06
2	0	0	1	0	3011.85	2.10503	2.10453	-0.00053421	1	-4.29139e-05	14	-1.12426e-06
2	0	0	1	0	3028.86	2.08802	2.08746	-0.00057488	1	-5.26333e-05	14	-1.20004e-06
2	0	0	1	0	3045.86	2.07102	2.07052	-0.000615389	1	-6.30362e-05	14	-1.27417e-06
2	0	0	1	0	3062.86	2.05401	2.05348	-0.000654052	1	-7.41206e-05	14	-1.34308e-06
2	0	0	1	0	3079.87	2.03701	2.03648	-0.00069209	1	-8.5857e-05	14	-1.40943e-06
2	0	0	1	0	3096.87	2.02	2.0194	-0.000723818	1	-9.81784e-05	14	-1.46168e-06
2	0	0	1	0	3113.88	2.003	2.00248	-0.00074043	1	-0.00011096	14	-1.48269e-06
2	0	0	1	0	3130.88	1.986	1.98548	-0.000757844	1	-0.000123986	14	-1.50469e-06
2	0	0	1	0	3147.89	1.96899	1.96849	-0.000774819	1	-0.000137296	14	-1.52523e-06
2	0	0	0	0	3164.89	1.95199	1.95148	-0.000788311	1	-0.000150868	14	-1.53838e-06
2	0	0	1	0	3181.89	1.93498	1.93445	-0.000802666	1	-0.000164686	14	-1.55272e-06
2	0	0	1	0	3198.9	1.91798	1.91739	-0.000816289	1	-0.000178733	14	-1.56515e-06
2	0	0	1	0	3215.9	1.90098	1.9005	-0.000831653	1	-0.000193037	14	-1.58055e-06
2	0	0	0	0	3232.91	1.88397	1.88344	-0.000843919	1	-0.000207578	14	-1.58947e-06
2	0	0	1	0	3249.91	1.86697	1.8664	-0.000853484	1	-0.000222294	14	-1.59294e-06
2	0	0	1	0	3266.92	1.84996	1.84946	-0.000862608	1	-0.000237169	14	-1.59536e-06
2	0	0	1	0	3283.92	1.83296	1.83239	-0.00087263	1	-0.000252203	14	-1.599e-06
2	0	0	1	0	3300.92	1.81595	1.81542	-0.000882679	1	-0.000267404	14	-1.60243e-06
2	0	0	1	0	3317.93	1.79895	1.79841	-0.000894261	1	-0.000282804	14	-1.60825e-06
2	0	0	1	0	3334.93	1.78195	1.78144	-0.00090718	1	-0.000298403	14	-1.61609e-06
2	0	0	1	0	3351.94	1.76494	1.76443	-0.000921453	1	-0.000314233	14	-1.62584e-06
2	0	0	1	0	3368.94	1.74794	1.74744	-0.000936205	1	-0.00033031	14	-1.63597e-06
2	0	0	1	0	3385.94	1.73093	1.7304	-0.000951868	1	-0.000346647	14	-1.64711e-06
2	0	0	1	0	3402.95	1.71393	1.71341	-0.000967815	1	-0.000363258	14	-1.65826e-06
2	0	0	1	0	3419.95	1.69692	1.69643	-0.000984302	1	-0.000380141	14	-1.6698e-06
2	0	0	1	0	3436.96	1.67992	1.67938	-0.00099947	1	-0.000397287	14	-1.67849e-06
2	0	0	1	0	3453.96	1.66292	1.66237	-0.00101701	1	-0.000414722	14	-1.69065e-06
2	0	0	1	0	3470.97	1.64591	1.64537	-0.00103525	1	-0.000432455	14	-1.70337e-06
2	0	0	1	0	3487.97	1.62891	1.62838	-0.00105451	1	-0.000450509	14	-1.71714e-06
2	0	0	1	0	3504.97	1.6119	1.61139	-0.00107503	1	-0.000468903	14	-1.73229e-06
2	0	0	0	0	3521.98	1.5949	1.59439	-0.00109764	1	-0.000487657	14	-1.75008e-06
2	0	0	1	0	3538.98	1.5779	1.5774	-0.00112099	1	-0.000506801	14	-1.76825e-06
2	0	0	1	0	3555.99	1.56089	1.5604	-0.00114647	1	-0.000526368	14	-1.78896e-06
2	0	0	1	0	3572.99	1.54389	1.54341	-0.00119739	1	-0.000546453	14	-1.84807e-06
2	0	0	1	0	3590	1.52688	1.52639	-0.00120801	1	-0.000567016	14	-1.8439e-06
2	0	0	1	0	3607	1.50988	1.50939	-0.00124168	1	-0.000588132	14	-1.87418e-06
2	0	0	1	0	3624	1.49287	1.49238	-0.00128035	1	-0.000609859	14	-1.91076e-06
2	0	0	1	0	3641.01	1.47587	1.47536	-0.00132182	1	-0.000632261	14	-1.95016e-06
2	0	0	1	0	3658.01	1.45887	1.45835	-0.00136417	1	-0.000655385	14	-1.98944e-06
2	0	0	1	0	3675.02	1.44186	1.44139	-0.00141129	1	-0.000679266	14	-2.03422e-06
2	0	0	1	0	3692.02	1.42486	1.42435	-0.00146121	1	-0.000703969	14	-2.08127e-06
2	0	0	1	0	3709.02	1.40785	1.40737	-0.00151529	1	-0.000729562	14	-2.13257e-06
2	0	0	1	0	3726.03	1.39085	1.39036	-0.00157484	1	-0.000756117	14	-2.1896e-06
2	0	0	1	0	3743.03	1.37384	1.37334	-0.00164286	1	-0.000783749	14	-2.25621e-06
2	0	0	1	0	3760.04	1.35684	1.35631	-0.00172293	1	-0.00081263	14	-2.33683e-06
2	0	0	0	0	3777.04	1.33984	1.33932	-0.00181954	1	-0.000843007	14	-2.43693e-06
2	0	0	1	0	3794.05	1.32283	1.32234	-0.00193666	1	-0.000875206	14	-2.56093e-06
2	0	0	1	0	3811.05	1.30583	1.30531	-0.00206769	1	-0.000909522	14	-2.69897e-06
2	0	0	1	0	3828.05	1.28882	1.28833	-0.0022107	1	-0.000946166	14	-2.84811e-06
2	0	0	0	0	3845.06	1.27182	1.27133	-0.00238783	1	-0.000985511	14	-3.03571e-06
2	0	0	1	0	3862.06	1.25482	1.25426	-0.00260928	1	-0.00102821	14	-3.27272e-06
2	0	0	1	0	3879.07	1.23781	1.23733	-0.00288434	1	-0.00107513	14	-3.56888e-06
2	0	0	1	0	3896.07	1.22081	1.22032	-0.00323096	1	-0.00112733	14	-3.9428e-06
2	0	0	1	0	3913.08	1.2038	1.20329	-0.00365337	1	-0.00118604	14	-4.39606e-06
2	0	0	1	0	3930.08	1.1868	1.1863	-0.00414659	1	-0.00125256	14	-4.9191e-06
2	0	0	1	0	3947.08	1.16979	1.16932	-0.00470827	1	-0.00132807	14	-5.50546e-06
2	0	0	1	0	3964.09	1.15279	1.15227	-0.00531847	1	-0.00141357	14	-6.1283e-06
2	0	0	1	0	3981.09	1.13579	1.1353	-0.00594752	1	-0.00150964	14	-6.75222e-06
2	0	0	1	0	3998.1	1.11878	1.11828	-0.0065742	1	-0.00161644	14	-7.35177e-06
2	0	0	1	0	4015.1	1.10178	1.10128	-0.00718122	1	-0.00173374	14	-7.90855e-06
2	0	0	1	0	4032.1	1.08477	1.08429	-0.00773854	1	-0.00186093	14	-8.39081e-06
2	0	0	1	0	4049.11	1.06777	1.06731	-0.00823891	1	-0.00199717	14	-8.79348e-06
2	0	0	1	0	4066.11	1.05076	1.05027	-0.00868523	1	-0.00214144	14	-9.12184e-06
2	0	0	1	0	4083.12	1.03376	1.03327	-0.00906157	1	-0.00229268	14	-9.36301e-06
2	0	0	1	0	4100.12	1.01676	1.01625	-0.00937076	1	-0.00244978	14	-9.52302e-06
2	0	0	1	0	4117.13	0.999752	0.999205	-0.00963589	1	-0.00261174	14	-9.62823e-06
2	0	0	1	0	4134.13	0.982748	0.982223	-0.00984601	1	-0.0027777	14	-9.67098e-06
2	0	0	1	0	4151.13	0.965744	0.965201	-0.0100131	1	-0.00294688	14	-9.66468e-06
2	0	0	1	0	4168.14	0.948739	0.948204	-0.010161	1	-0.00311871	14	-9.63468e-06
2	0	0	1	0	4185.14	0.931735	0.931274	-0.0102698	1	-0.00329272	14	-9.564e-06
2	0	0	1	0	4202.15	0.914731	0.914248	-0.0103678	1	-0.00346846	14	-9.47876e-06
2	0	0	1	0	4219.15	0.897727	0.897214	-0.0104758	1	-0.00364595	14	-9.39905e-06
2	0	0	1	0	4236.16	0.880723	0.880224	-0.0105858	1	-0.00382523	14	-9.31791e-06
2	0	0	1	0	4253.16	0.863718	0.863196	-0.0107215	1	-0.0040066	14	-9.25477e-06
2	0	0	1	0	4270.16	0.846714	0.846243	-0.0109	1	-0.00419058	14	-9.22404e-06
2	0	0	1	0	4287.17	0.82971	0.829174	-0.011125	1	-0.00437803	13	-9.22453e-06
2	0	0	1	0	4304.17	0.812706	0.812226	-0.0113988	1	-0.00456972	13	-9.25844e-06
2	0	0	1	0	4321.18	0.795701	0.795183	-0.011728	1	-0.00476654	13	-9.32588e-06
2	0	0	1	0	4338.18	0.778697	0.778226	-0.0120892	1	-0.00496925	13	-9.4081e-06
2	0	0	1	0	4355.18	0.761693	0.761204	-0.0124958	1	-0.00517847	13	-9.51189e-06
2	0	0	1	0	4372.19	0.744689	0.7442	-0.0129503	1	-0.00539499	13	-9.63765e-06
2	0	0	1	0	4389.19	0.727685	0.727211	-0.0134591	1	-0.00561972	13	-9.78759e-06
2	0	0	1	0	4406.2	0.71068	0.710203	-0.0140552	1	-0.00585382	13	-9.98208e-06
2	0	0	1	0	4423.2	0.693676	0.693236	-0.0147466	1	-0.00609884	13	-1.02229e-05
2	0	0	1	0	4440.21	0.676672	0.67621	-0.0155347	1	-0.00635647	13	-1.05047e-05
2	0	0	1	0	4457.21	0.659668	0.659222	-0.0164289	1	-0.0066284	13	-1.08303e-05
2	0	0	1	0	4474.21	0.642663	0.642202	-0.0174107	1	-0.00691629	13	-1.11812e-05
2	0	0	1	0	4491.22	0.625659	0.625227	-0.0184631	1	-0.00722156	13	-1.15437e-05
2	0	0	0	0	4508.22	0.608655	0.608214	-0.0195781	1	-0.00754521	13	-1.19077e-05
2	0	0	1	0	4525.23	0.591651	0.59116	-0.0207574	1	-0.00788839	13	-1.2271e-05
2	0	0	1	0	4542.23	0.574647	0.574207	-0.0219616	1	-0.00825194	13	-1.26105e-05
2	0	0	1	0	4559.24	0.557642	0.557223	-0.0231999	1	-0.00863625	13	-1.29275e-05
2	0	0	1	0	4576.24	0.540638	0.540213	-0.0244204	1	-0.0090415	13	-1.31922e-05
2	0	0	1	0	4593.24	0.523634	0.523211	-0.0255827	1	-0.00946714	13	-1.33851e-05
2	0	0	1	0	4610.25	0.50663	0.506253	-0.0266317	1	-0.00991167	13	-1.34824e-05
2	0	0	1	0	4627.25	0.489626	0.489186	-0.02754	1	-0.0103728	13	-1.34722e-05
2	0	0	1	0	4644.26	0.472622	0.472202	-0.0282804	1	-0.010848	13	-1.33541e-05
2	0	0	1	0	4661.26	0.455617	0.455209	-0.0288859	1	-0.0113346	13	-1.31491e-05
2	0	0	1	0	4678.26	0.438613	0.438247	-0.029407	1	-0.0118307	13	-1.28875e-05
2	0	0	1	0	4695.27	0.421609	0.421174	-0.0298393	1	-0.0123348	13	-1.25675e-05
2	0	0	1	0	4712.27	0.404604	0.404181	-0.0302734	1	-0.0128463	13	-1.22359e-05
2	0	0	1	0	4729.28	0.3876	0.3872	-0.0307407	1	-0.0133653	13	-1.19028e-05
2	0	0	1	0	4746.28	0.370596	0.37017	-0.0312442	1	-0.0138926	13	-1.15657e-05
2	0	0	1	0	4763.29	0.353592	0.353151	-0.0318262	1	-0.0144291	13	-1.12395e-05
2	0	0	1	0	4780.29	0.336588	0.336152	-0.0325488	1	-0.0149766	13	-1.09413e-05
2	0	0	1	0	4797.29	0.319583	0.319217	-0.0334029	1	-0.0155376	13	-1.06628e-05
2	0	0	1	0	4814.3	0.302579	0.302167	-0.0343893	1	-0.0161142	13	-1.03913e-05
2	0	0	1	0	4831.3	0.285575	0.285199	-0.0355504	1	-0.016709	13	-1.01389e-05
2	0	0	1	0	4848.31	0.268571	0.268169	-0.0368418	1	-0.0173247	13	-9.87983e-06
2	0	0	1	0	4865.31	0.251567	0.251174	-0.0382203	1	-0.0179632	13	-9.59995e-06
2	0	0	1	0	4882.32	0.234563	0.234165	-0.0397983	1	-0.0186268	13	-9.31937e-06
2	0	0	1	0	4899.32	0.217558	0.217139	-0.0415003	1	-0.0193182	13	-9.01135e-06
2	0	0	1	0	4916.32	0.200554	0.200131	-0.0433474	1	-0.0200397	13	-8.67515e-06
2	0	0	1	0	4933.33	0.18355	0.183147	-0.0454265	1	-0.0207946	13	-8.31974e-06
2	0	0	1	0	4950.33	0.166545	0.166142	-0.0475975	1	-0.0215858	13	-7.90794e-06
2	0	0	1	0	4967.34	0.149541	0.149116	-0.0501467	1	-0.0224168	13	-7.47767e-06
2	0	0	1	0	4984.34	0.132537	0.132123	-0.0533558	1	-0.0232955	13	-7.04955e-06
2	0	0	1	0	5001.34	0.115533	0.115126	-0.0596932	1	-0.0242512	13	-6.87223e-06
2	0	0	1	0	5018.35	0.0985287	0.0981389	-0.0700576	1	-0.0253504	13	-6.87537e-06
2	0	0	1	0	5035.35	0.0815244	0.0811337	-0.0824462	1	-0.0266464	13	-6.68916e-06
2	0	0	1	0	5052.36	0.0645202	0.064118	-0.0956103	1	-0.0281607	13	-6.13034e-06
2	0	0	1	0	5069.36	0.0475159	0.0471213	-0.108738	1	-0.0298986	13	-5.12389e-06
2	0	0	1	0	5086.37	0.0305118	0.0301598	-0.121835	1	-0.03186	12	-3.67453e-06
2	0	0	1	0	5103.37	0.0135077	0.0130721	-0.13484	1	-0.0340438	12	-1.76264e-06
2	0	0	1	0	5119.47	0.0225098	0.0221192	-0.116203	1	-0.0361176	12	-2.57033e-06
2	0	0	1	0	5136.48	0.0395141	0.0390788	-0.0902544	1	-0.0378659	12	-3.52703e-06
2	0	0	1	0	5153.48	0.0565183	0.0561337	-0.0686055	1	-0.0392098	12	-3.85108e-06
2	0	0	1	0	5170.49	0.0735225	0.0731038	-0.0506564	1	-0.0402186	12	-3.70318e-06
2	0	0	1	0	5187.49	0.0905267	0.0901057	-0.0352872	1	-0.0409451	13	-3.17957e-06
2	0	0	1	0	5204.5	0.107531	0.107126	-0.0219571	1	-0.0414285	13	-2.35217e-06
2	0	0	1	0	5221.5	0.124535	0.124136	-0.0102289	1	-0.0416996	13	-1.26977e-06
2	1	0	1	0	5238.5	0.141539	0.141154	0.000277584	1	-0.0417818	14	3.9182e-08
2	1	0	1	0	5255.51	0.158544	0.158146	0.00973503	1	-0.041695	14	1.53956e-06
2	1	0	1	0	5272.51	0.175548	0.175142	0.0186416	1	-0.0414527	13	3.26492e-06
2	1	0	1	0	5289.52	0.192552	0.192148	0.027427	1	-0.0410604	13	5.27003e-06
2	1	0	1	0	5306.52	0.209556	0.209148	0.0363007	1	-0.0405179	13	7.59221e-06
2	1	0	1	0	5323.53	0.22656	0.226156	0.0448953	1	-0.0398266	13	1.01533e-05
2	1	0	1	0	5340.53	0.243564	0.243137	0.053268	1	-0.0389913	13	1.29514e-05
2	1	0	1	0	5357.53	0.260569	0.260189	0.0625465	1	-0.038009	13	1.62739e-05
2	1	0	1	0	5374.54	0.277573	0.277162	0.0770611	1	-0.0368332	13	2.13584e-05
2	1	0	1	0	5391.54	0.294577	0.29416	0.103107	1	-0.0353205	13	3.03301e-05
2	1	0	1	0	5408.55	0.311582	0.311172	0.146882	1	-0.0332241	12	4.57054e-05
2	1	0	1	0	5425.55	0.328586	0.328149	0.202832	1	-0.0302373	12	6.65592e-05
2	1	0	1	0	5442.55	0.34559	0.345174	0.212125	1	-0.026599	12	7.322e-05
2	1	0	1	0	5459.56	0.362594	0.362213	0.152957	1	-0.0234304	12	5.5403e-05
2	1	0	1	0	5476.56	0.379598	0.379197	0.0842653	1	-0.0214471	12	3.19532e-05
2	1	0	1	0	5493.57	0.396603	0.396137	0.046684	1	-0.020377	12	1.84932e-05
2	1	0	1	0	5510.57	0.413607	0.413193	0.032038	1	-0.0197265	13	1.32379e-05
2	1	0	1	0	5527.58	0.430611	0.430205	0.0262751	1	-0.0192361	13	1.13037e-05
2	1	0	1	0	5544.58	0.447615	0.44718	0.0233695	1	-0.0188144	13	1.04504e-05
2	1	0	1	0	5561.58	0.464619	0.464194	0.021559	1	-0.0184314	13	1.00076e-05
2	1	0	1	0	5578.59	0.481623	0.48126	0.0200611	1	-0.0180765	13	9.65458e-06
2	1	0	1	0	5595.59	0.498628	0.498208	0.0187366	1	-0.0177451	13	9.33474e-06
2	1	0	0	0	5612.6	0.515632	0.515176	0.0176359	1	-0.0174344	13	9.0856e-06
2	1	0	1	0	5629.6	0.532636	0.532209	0.0166391	1	-0.0171416	13	8.85546e-06
2	1	0	1	0	5646.61	0.54964	0.549237	0.0156728	1	-0.0168657	13	8.60806e-06
2	1	0	1	0	5663.61	0.566645	0.566247	0.014834	1	-0.0166049	13	8.39971e-06
2	1	0	1	0	5680.61	0.583649	0.58325	0.0140509	1	-0.016358	13	8.19519e-06
2	1	0	1	0	5697.62	0.600653	0.600176	0.0133354	1	-0.0161237	13	8.00362e-06
2	1	0	1	0	5714.62	0.617657	0.617215	0.0127082	1	-0.015901	13	7.8437e-06
2	1	0	1	0	5731.63	0.634661	0.634233	0.0120864	1	-0.0156889	13	7.66562e-06
2	1	0	1	0	5748.63	0.651666	0.651234	0.011525	1	-0.0154867	13	7.50548e-06
2	1	0	1	0	5765.64	0.66867	0.668253	0.0110264	1	-0.0152936	13	7.36843e-06
2	1	0	1	0	5782.64	0.685674	0.685199	0.0105175	1	-0.0151089	13	7.20656e-06
2	1	0	1	0	5799.64	0.702678	0.702207	0.0100439	1	-0.0149325	13	7.05288e-06
2	1	0	1	0	5816.65	0.719683	0.719228	0.00960068	1	-0.0147642	13	6.90507e-06
2	1	0	1	0	5833.65	0.736687	0.736213	0.00915498	1	-0.0146035	13	6.74001e-06
2	1	0	1	0	5850.66	0.753691	0.753261	0.00881477	1	-0.0144494	13	6.63983e-06
2	1	0	1	0	5867.66	0.770695	0.770219	0.00855154	1	-0.0143006	13	6.58655e-06
2	1	0	1	0	5884.66	0.787699	0.787213	0.00833148	1	-0.0141557	13	6.55865e-06
2	1	0	1	0	5901.67	0.804704	0.804231	0.0081755	1	-0.014014	13	6.57499e-06
2	1	0	0	0	5918.67	0.821708	0.821218	0.0080307	1	-0.0138749	13	6.59495e-06
2	1	0	1	0	5935.68	0.838712	0.838223	0.00784962	1	-0.0137385	13	6.57973e-06
2	1	0	1	0	5952.68	0.855716	0.855249	0.00767441	1	-0.0136051	13	6.56353e-06
2	1	0	1	0	5969.69	0.872721	0.872277	0.00749799	1	-0.0134749	13	6.54032e-06
2	1	0	1	0	5986.69	0.889725	0.889204	0.00730924	1	-0.0133477	13	6.49941e-06
2	1	0	1	0	6003.69	0.906729	0.906232	0.00716749	1	-0.0132232	13	6.49541e-06
2	1	0	1	0	6020.7	0.923733	0.923236	0.00703584	1	-0.0131012	13	6.49574e-06
2	1	0	1	0	6037.7	0.940737	0.94021	0.00689131	1	-0.0129815	13	6.47928e-06
2	1	0	1	0	6054.71	0.957742	0.957254	0.00676456	1	-0.0128641	13	6.4754e-06
2	1	0	1	0	6071.71	0.974746	0.974244	0.00663223	1	-0.0127491	13	6.4614e-06
2	1	0	1	0	6088.72	0.99175	0.991217	0.00646727	1	-0.0126365	13	6.41047e-06
2	1	0	1	0	6105.72	1.00875	1.00828	0.00629638	1	-0.0125267	13	6.34849e-06
2	1	0	1	0	6122.72	1.02576	1.02526	0.0061277	1	-0.01242	13	6.28251e-06
2	1	0	1	0	6139.73	1.04276	1.04224	0.00593285	1	-0.0123164	13	6.18348e-06
2	1	0	1	0	6156.73	1.05977	1.05931	0.00571735	1	-0.0122163	13	6.05643e-06
2	1	0	1	0	6173.74	1.07677	1.07628	0.0055168	1	-0.0121197	13	5.93761e-06
2	1	0	1	0	6190.74	1.09378	1.09329	0.00530538	1	-0.0120267	13	5.80031e-06
2	1	0	1	0	6207.74	1.11078	1.11027	0.0050756	1	-0.0119375	13	5.63528e-06
2	1	0	1	0	6224.75	1.12778	1.12729	0.00486393	1	-0.0118519	13	5.48304e-06
2	1	0	1	0	6241.75	1.14479	1.1443	0.00463944	1	-0.0117702	13	5.30892e-06
2	1	0	1	0	6258.76	1.16179	1.16127	0.00439591	1	-0.0116924	14	5.10485e-06
2	1	0	1	0	6275.76	1.1788	1.17826	0.00415622	1	-0.0116187	14	4.89709e-06
2	1	0	1	0	6292.77	1.1958	1.1953	0.00391231	1	-0.0115492	14	4.67637e-06
2	1	0	1	0	6309.77	1.2128	1.21227	0.00364381	1	-0.0114841	14	4.41727e-06
2	1	0	1	0	6326.77	1.22981	1.22932	0.0033809	1	-0.0114234	14	4.1562e-06
2	1	0	1	0	6343.78	1.24681	1.24634	0.00311629	1	-0.0113673	14	3.88396e-06
2	1	0	1	0	6360.78	1.26382	1.26329	0.00284288	1	-0.0113158	14	3.59138e-06
2	1	0	1	0	6377.79	1.28082	1.28035	0.0025798	1	-0.0112688	14	3.30303e-06
2	1	0	1	0	6394.79	1.29783	1.29735	0.00233212	1	-0.0112262	14	3.02559e-06
2	1	0	1	0	6411.8	1.31483	1.31428	0.00209478	1	-0.0111878	14	2.75314e-06
2	1	0	1	0	6428.8	1.33183	1.33134	0.00187828	1	-0.0111532	14	2.50062e-06
2	1	0	1	0	6445.8	1.34884	1.34837	0.00168642	1	-0.0111221	14	2.27391e-06
2	1	0	1	0	6462.81	1.36584	1.36537	0.00151701	1	-0.0110941	14	2.07129e-06
2	1	0	1	0	6479.81	1.38285	1.38236	0.00137189	1	-0.0110688	14	1.89644e-06
2	1	0	1	0	6496.82	1.39985	1.39936	0.00124769	1	-0.0110458	14	1.74596e-06
2	1	0	1	0	6513.82	1.41686	1.41636	0.00114445	1	-0.0110248	14	1.62096e-06
2	1	0	0	0	6530.83	1.43386	1.43334	0.00105794	1	-0.0110054	14	1.5164e-06
2	1	0	1	0	6547.83	1.45086	1.45033	0.000989416	1	-0.0109873	14	1.43498e-06
2	1	0	1	0	6564.83	1.46787	1.46736	0.000929439	1	-0.0109703	14	1.36382e-06
2	1	0	1	0	6581.84	1.48487	1.48435	0.000880828	1	-0.0109542	14	1.30746e-06
2	1	0	1	1	6597.54	1.49948	1.49894	0.000807754	2	-0.0109401	14	1.21077e-06
2	1	0	1	1	6614.55	1.48247	1.48195	0.000504753	2	-0.01093	14	7.48018e-07
2	1	0	1	1	6631.55	1.46547	1.46497	0.000336363	2	-0.0109236	14	4.92762e-07
2	1	0	0	1	6648.55	1.44846	1.44793	0.000210705	2	-0.0109197	14	3.05086e-07
2	1	0	1	1	6665.56	1.43146	1.43096	0.000109131	2	-0.0109176	14	1.56163e-07
2	1	0	1	1	6682.56	1.41445	1.41393	1.64221e-05	2	-0.0109172	14	2.32198e-08
2	0	0	1	1	6699.57	1.39745	1.39693	-7.42174e-05	2	-0.0109183	14	-1.03676e-07
2	0	0	1	1	6716.57	1.38045	1.37994	-0.000179017	2	-0.0109211	14	-2.47031e-07
2	0	0	1	1	6733.58	1.36344	1.36296	-0.000308711	2	-0.0109259	14	-4.20762e-07
2	0	0	1	1	6750.58	1.34644	1.34592	-0.000476138	2	-0.0109332	14	-6.40845e-07
2	0	0	1	1	6767.58	1.32943	1.32891	-0.000696079	2	-0.0109437	14	-9.25026e-07
2	0	0	1	1	6784.59	1.31243	1.31194	-0.000979995	2	-0.0109585	14	-1.2857e-06
2	0	0	1	1	6801.59	1.29543	1.29492	-0.00133219	2	-0.0109788	14	-1.72509e-06
2	0	0	1	1	6818.6	1.27842	1.27792	-0.00175004	2	-0.0110056	14	-2.23641e-06
2	0	0	0	1	6835.6	1.26142	1.26089	-0.00222325	2	-0.01104	14	-2.80328e-06
2	0	0	1	1	6852.61	1.24441	1.2439	-0.0027199	2	-0.0110828	14	-3.38329e-06
2	0	0	1	1	6869.61	1.22741	1.22691	-0.00321195	2	-0.011134	14	-3.94078e-06
2	0	0	1	1	6886.61	1.2104	1.20992	-0.00367528	2	-0.0111933	14	-4.44682e-06
2	0	0	1	1	6903.62	1.1934	1.19287	-0.00408766	2	-0.0112601	14	-4.87605e-06
2	0	0	1	1	6920.62	1.1764	1.17586	-0.00444195	2	-0.0113335	14	-5.2231e-06
2	0	0	1	1	6937.63	1.15939	1.15891	-0.00473557	2	-0.0114124	14	-5.48812e-06
2	0	0	1	1	6954.63	1.14239	1.1419	-0.00498454	2	-0.0114959	14	-5.69185e-06
2	0	0	1	1	6971.63	1.12538	1.12489	-0.00519785	2	-0.0115834	14	-5.84701e-06
2	0	0	1	1	6988.64	1.10838	1.10788	-0.00539135	2	-0.0116743	14	-5.97294e-06
2	0	0	1	1	7005.64	1.09137	1.09093	-0.00558734	2	-0.0117685	14	-6.09541e-06
2	0	0	1	1	7022.65	1.07437	1.07387	-0.00577924	2	-0.0118661	14	-6.20613e-06
2	0	0	1	1	7039.65	1.05737	1.05685	-0.00597702	2	-0.011967	14	-6.31679e-06
2	0	0	1	1	7056.66	1.04036	1.03981	-0.00619801	2	-0.0120714	14	-6.44477e-06
2	0	0	1	1	7073.66	1.02336	1.02287	-0.00640923	2	-0.0121795	14	-6.55583e-06
2	0	0	1	1	7090.66	1.00635	1.00584	-0.00660438	2	-0.0122913	14	-6.64293e-06
2	0	0	1	1	7107.67	0.989349	0.988852	-0.00681145	2	-0.0124064	14	-6.73552e-06
2	0	0	1	1	7124.67	0.972345	0.971839	-0.00699889	2	-0.0125249	14	-6.80179e-06
2	0	0	1	1	7141.68	0.955341	0.954842	-0.00714282	2	-0.0126462	14	-6.82027e-06
2	0	0	1	1	7158.68	0.938337	0.937841	-0.00732422	2	-0.0127704	14	-6.86895e-06
2	0	0	1	1	7175.69	0.921333	0.920858	-0.00747886	2	-0.0128972	14	-6.88697e-06
2	0	0	1	1	7192.69	0.904328	0.903852	-0.00759561	2	-0.0130266	14	-6.86531e-06
2	0	0	1	1	7209.69	0.887324	0.886832	-0.00777107	2	-0.0131585	14	-6.89163e-06
2	0	0	1	1	7226.7	0.87032	0.869783	-0.00795829	2	-0.0132932	14	-6.92199e-06
2	0	0	1	1	7243.7	0.853316	0.85283	-0.00808243	2	-0.0134307	14	-6.89294e-06
2	0	0	1	1	7260.71	0.836311	0.835854	-0.00830713	2	-0.0135715	14	-6.94355e-06
2	0	0	1	1	7277.71	0.819307	0.818794	-0.00854013	2	-0.0137158	14	-6.99261e-06
2	0	0	1	1	7294.71	0.802303	0.801803	-0.0086685	2	-0.0138635	14	-6.95043e-06
2	0	0	1	1	7311.72	0.785299	0.784828	-0.0088685	2	-0.0140141	14	-6.96025e-06
2	0	0	1	1	7328.72	0.768295	0.767793	-0.00908384	2	-0.0141678	14	-6.97451e-06
2	0	0	1	1	7345.73	0.75129	0.750764	-0.00923223	2	-0.0143248	14	-6.93123e-06
2	0	0	1	1	7362.73	0.734286	0.73382	-0.00951124	2	-0.0144857	14	-6.97954e-06
2	0	0	1	1	7379.74	0.717282	0.716824	-0.00989898	2	-0.0146518	14	-7.09583e-06
2	0	0	1	1	7396.74	0.700278	0.699802	-0.0102609	2	-0.0148243	14	-7.18061e-06
2	0	0	1	1	7413.74	0.683274	0.68282	-0.0107133	2	-0.0150043	14	-7.31523e-06
2	0	0	1	1	7430.75	0.666269	0.665789	-0.011272	2	-0.0151924	13	-7.50475e-06
2	0	0	1	1	7447.75	0.649265	0.648773	-0.0117522	2	-0.0153894	13	-7.62452e-06
2	0	0	1	1	7464.76	0.632261	0.63181	-0.0122361	2	-0.0155952	13	-7.73092e-06
2	0	0	1	1	7481.76	0.615257	0.614762	-0.0128654	2	-0.0158101	13	-7.90914e-06
2	0	0	0	1	7498.77	0.598253	0.597817	-0.0134278	2	-0.0160348	13	-8.02737e-06
2	0	0	1	1	7515.77	0.581248	0.580804	-0.0139933	2	-0.0162696	13	-8.12738e-06
2	0	0	1	1	7532.77	0.564244	0.563819	-0.0147386	2	-0.0165153	13	-8.30989e-06
2	0	0	1	1	7549.78	0.54724	0.546801	-0.0154349	2	-0.016773	13	-8.43982e-06
2	0	0	1	1	7566.78	0.530236	0.529791	-0.0161458	2	-0.0170434	13	-8.55389e-06
2	0	0	1	1	7583.79	0.513231	0.512748	-0.0170535	2	-0.0173273	13	-8.74417e-06
2	0	0	1	1	7600.79	0.496227	0.49579	-0.0179359	2	-0.017626	13	-8.89242e-06
2	0	0	1	1	7617.8	0.479223	0.478771	-0.0188203	2	-0.0179402	13	-9.0106e-06
2	0	0	1	1	7634.8	0.462219	0.461823	-0.0198725	2	-0.0182708	13	-9.17756e-06
2	0	0	1	1	7651.8	0.445214	0.444794	-0.020928	2	-0.0186191	13	-9.30865e-06
2	0	0	1	1	7668.81	0.42821	0.427842	-0.0219912	2	-0.0189855	13	-9.40874e-06
2	0	0	1	1	7685.81	0.411206	0.410752	-0.0232018	2	-0.0193712	13	-9.5302e-06
2	0	0	1	1	7702.82	0.394202	0.393738	-0.0244286	2	-0.0197775	13	-9.61846e-06
2	0	0	1	1	7719.82	0.377198	0.376728	-0.0256935	2	-0.020205	13	-9.67947e-06
2	0	0	1	1	7736.82	0.360194	0.359775	-0.0270637	2	-0.020655	13	-9.73683e-06
2	0	0	1	1	7753.83	0.343189	0.342765	-0.0284664	2	-0.0211283	13	-9.75731e-06
2	0	0	1	1	7770.83	0.326185	0.325745	-0.0298857	2	-0.0216253	13	-9.73513e-06
2	0	0	1	1	7787.84	0.309181	0.308723	-0.0312665	2	-0.0221466	13	-9.6527e-06
2	0	0	1	1	7804.84	0.292177	0.291733	-0.0322029	2	-0.0226894	13	-9.39467e-06
2	0	0	1	1	7821.85	0.275173	0.274748	-0.0336161	2	-0.0232507	13	-9.23598e-06
2	0	0	1	1	7838.85	0.258168	0.257744	-0.0347406	2	-0.0238329	13	-8.95418e-06
2	0	0	1	1	7855.85	0.241164	0.240766	-0.0349862	2	-0.0244268	13	-8.42348e-06
2	0	0	1	1	7872.86	0.22416	0.223793	-0.0350425	2	-0.0250217	13	-7.84228e-06
2	0	0	1	1	7889.86	0.207156	0.20676	-0.0353215	2	-0.025621	13	-7.30307e-06
2	0	0	1	1	7906.87	0.190151	0.189716	-0.0357244	2	-0.026226	13	-6.7775e-06
2	0	0	1	1	7923.87	0.173147	0.172747	-0.0365299	2	-0.0268341	13	-6.31044e-06
2	0	0	1	1	7940.88	0.156143	0.155741	-0.0403088	2	-0.0274825	13	-6.27775e-06
2	0	0	1	1	7957.88	0.139139	0.138732	-0.0490136	2	-0.0282373	13	-6.79976e-06
2	0	0	1	1	7974.88	0.122135	0.121768	-0.0600108	2	-0.0291619	13	-7.30742e-06
2	0	0	1	1	7991.89	0.10513	0.10475	-0.0716122	2	-0.0302821	13	-7.50141e-06
2	0	0	1	1	8008.89	0.088126	0.0877295	-0.0826654	2	-0.0315955	13	-7.25219e-06
2	0	0	1	1	8025.9	0.0711218	0.0707434	-0.0928045	2	-0.0330895	13	-6.56531e-06
2	0	0	1	1	8042.9	0.0541177	0.053712	-0.103127	2	-0.0347516	13	-5.53914e-06
2	0	0	1	1	8059.9	0.0371136	0.0367377	-0.109249	2	-0.0365528	13	-4.01355e-06
2	0	0	1	1	8076.91	0.0201093	0.0197071	-0.116171	2	-0.0384705	12	-2.2894e-06
2	0	0	1	1	8092.61	0.0155082	0.0150992	-0.110606	2	-0.0403112	12	-1.67006e-06
2	0	0	1	1	8109.62	0.0325124	0.0320841	-0.0856961	2	-0.0419704	12	-2.74949e-06
2	0	0	1	1	8126.62	0.0495165	0.0491251	-0.0659338	2	-0.0432529	12	-3.23901e-06
2	0	0	1	1	8143.63	0.0665207	0.0660868	-0.0494516	2	-0.0442294	12	-3.2681e-06
2	0	0	1	1	8160.73	0.0836251	0.0832712	-0.0350423	2	-0.0449485	13	-2.91802e-06
2	0	0	1	1	8177.73	0.100629	0.100259	-0.0223825	2	-0.045434	13	-2.24405e-06
2	0	0	1	1	8194.74	0.117633	0.117222	-0.0110087	2	-0.0457156	13	-1.29046e-06
2	0	0	1	1	8211.74	0.134638	0.134227	-0.000723494	2	-0.0458133	14	-9.71124e-08
2	1	0	1	1	8228.75	0.151642	0.15124	0.00859518	2	-0.0457448	14	1.29994e-06
2	1	0	1	1	8245.75	0.168646	0.16822	0.0173956	2	-0.0455226	13	2.92629e-06
2	1	0	1	1	8262.76	0.18565	0.185242	0.0258018	2	-0.0451543	13	4.77958e-06
2	1	0	1	1	8279.76	0.202655	0.202264	0.0341566	2	-0.0446442	13	6.90866e-06
2	1	0	1	1	8296.76	0.219659	0.219255	0.0431821	2	-0.0439877	13	9.46788e-06
2	1	0	1	1	8313.77	0.236663	0.236256	0.0526906	2	-0.0431731	13	1.24485e-05
2	1	0	1	1	8330.77	0.253667	0.253257	0.0655879	2	-0.042178	13	1.66106e-05
2	1	0	1	1	8347.78	0.270671	0.270272	0.0777568	2	-0.0409617	13	2.10155e-05
2	1	0	1	1	8364.78	0.287676	0.287264	0.092662	2	-0.0395166	13	2.66185e-05
2	1	0	1	1	8381.78	0.30468	0.304264	0.110038	2	-0.0377971	13	3.34805e-05
2	1	0	1	1	8398.79	0.321684	0.321234	0.134783	2	-0.035729	12	4.32968e-05
2	1	0	1	1	8415.79	0.338688	0.338228	0.165733	2	-0.0331688	12	5.60554e-05
2	1	0	1	1	8432.8	0.355692	0.355237	0.182181	2	-0.030173	12	6.47175e-05
2	1	0	1	1	8449.8	0.372697	0.372274	0.167855	2	-0.0271478	12	6.24882e-05
2	1	0	1	1	8466.81	0.389701	0.389287	0.123493	2	-0.0246407	12	4.80743e-05
2	1	0	1	1	8483.81	0.406705	0.406259	0.0744963	2	-0.0229734	12	3.02648e-05
2	1	0	1	1	8500.81	0.423709	0.42339	0.0439964	2	-0.0219963	13	1.86276e-05
2	1	0	1	1	8517.82	0.440714	0.440254	0.0305305	2	-0.0213785	13	1.34412e-05
2	1	0	1	1	8534.82	0.457718	0.457301	0.0249027	2	-0.0209123	13	1.1388e-05
2	1	0	1	1	8551.83	0.474722	0.474308	0.0220706	2	-0.0205138	13	1.04683e-05
2	1	0	1	1	8568.83	0.491726	0.491319	0.0202843	2	-0.0201533	13	9.96604e-06
2	1	0	1	1	8585.84	0.50873	0.508286	0.0187526	2	-0.0198206	13	9.53167e-06
2	1	0	1	1	8602.84	0.525735	0.525317	0.0176524	2	-0.0195098	13	9.27313e-06
2	1	0	1	1	8619.84	0.542739	0.542348	0.0166138	2	-0.0192176	13	9.01044e-06
2	1	0	1	1	8636.85	0.559743	0.559317	0.0156055	2	-0.0189428	13	8.72842e-06
2	1	0	1	1	8653.85	0.576747	0.57633	0.0147583	2	-0.018683	13	8.50568e-06
2	1	0	0	1	8670.86	0.593751	0.59334	0.0140144	2	-0.0184376	13	8.31532e-06
2	1	0	1	1	8687.86	0.610756	0.610337	0.0132489	2	-0.0182048	13	8.08631e-06
2	1	0	1	1	8704.87	0.62776	0.627278	0.0126001	2	-0.0179837	13	7.90373e-06
2	1	0	1	1	8721.87	0.644764	0.64434	0.0120477	2	-0.0177733	13	7.76282e-06
2	1	0	1	1	8738.87	0.661768	0.661331	0.011466	2	-0.0175725	13	7.58284e-06
2	1	0	1	1	8755.88	0.678772	0.67828	0.0109137	2	-0.0173808	13	7.40258e-06
2	1	0	1	1	8772.88	0.695777	0.695367	0.0104641	2	-0.0171981	13	7.27641e-06
2	1	0	1	1	8789.89	0.712781	0.712351	0.00996367	2	-0.0170235	13	7.09763e-06
2	1	0	1	1	8806.89	0.729785	0.729316	0.00947563	2	-0.0168572	13	6.91073e-06
2	1	0	1	1	8823.89	0.746789	0.746368	0.0090984	2	-0.0166983	13	6.79076e-06
2	1	0	1	1	8840.9	0.763793	0.763313	0.00876095	2	-0.0165458	13	6.68735e-06
2	1	0	0	1	8857.9	0.780798	0.780311	0.00848117	2	-0.0163981	13	6.61795e-06
2	1	0	1	1	8874.91	0.797802	0.797369	0.00831319	2	-0.0162545	13	6.62868e-06
2	1	0	1	1	8891.91	0.814806	0.814315	0.00814287	2	-0.0161137	13	6.63086e-06
2	1	0	1	1	8908.92	0.83181	0.831341	0.00795078	2	-0.0159758	13	6.60981e-06
2	1	0	1	1	8925.92	0.848815	0.848366	0.00781204	2	-0.0158408	13	6.62747e-06
2	1	0	1	1	8942.92	0.865819	0.865361	0.00761933	2	-0.0157088	13	6.59347e-06
2	1	0	1	1	8959.93	0.882823	0.882326	0.00741846	2	-0.01558	13	6.5455e-06
2	1	0	1	1	8976.93	0.899827	0.899343	0.00726167	2	-0.0154543	13	6.53073e-06
2	1	0	1	1	8993.94	0.916831	0.91636	0.00712225	2	-0.0153312	13	6.52654e-06
2	1	0	1	1	9010.94	0.933836	0.933355	0.00696699	2	-0.0152106	13	6.50268e-06
2	1	0	1	1	9027.95	0.95084	0.950335	0.00685079	2	-0.0150923	13	6.51055e-06
2	1	0	1	1	9044.95	0.967844	0.967377	0.00670498	2	-0.0149763	13	6.48625e-06
2	1	0	1	1	9061.95	0.984848	0.98441	0.00654982	2	-0.0148627	13	6.4477e-06
2	1	0	1	1	9078.96	1.00185	1.00137	0.00639527	2	-0.014752	13	6.40405e-06
2	1	0	1	1	9095.96	1.01886	1.01836	0.00621493	2	-0.014644	13	6.32901e-06
2	1	0	1	1	9112.97	1.03586	1.0354	0.00602016	2	-0.0145392	13	6.23328e-06
2	1	0	1	1	9129.97	1.05287	1.05244	0.00582254	2	-0.0144379	13	6.12787e-06
2	1	0	1	1	9146.97	1.06987	1.06941	0.00560603	2	-0.01434	13	5.99514e-06
2	1	0	1	1	9163.98	1.08687	1.08643	0.005393	2	-0.0142457	13	5.85912e-06
2	1	0	1	1	9180.98	1.10388	1.1034	0.00517411	2	-0.0141552	13	5.70913e-06
2	1	0	1	1	9197.99	1.12088	1.1204	0.0049458	2	-0.0140685	13	5.54127e-06
2	1	0	1	1	9214.99	1.13789	1.13738	0.0047131	2	-0.0139856	13	5.36059e-06
2	1	0	1	1	9232	1.15489	1.15441	0.00447576	2	-0.0139068	13	5.16687e-06
2	1	0	1	1	9249	1.17189	1.17138	0.00423142	2	-0.013832	14	4.95661e-06
2	1	0	1	1	9266	1.1889	1.18839	0.00398055	2	-0.0137615	14	4.73044e-06
2	1	0	0	1	9283.01	1.2059	1.20547	0.00372192	2	-0.0136953	14	4.48665e-06
2	1	0	1	1	9300.01	1.22291	1.22243	0.00345658	2	-0.0136335	14	4.22543e-06
2	1	0	1	1	9317.02	1.23991	1.23947	0.00318891	2	-0.0135763	14	3.95256e-06
2	1	0	1	1	9334.02	1.25692	1.25647	0.00292303	2	-0.0135237	14	3.67271e-06
2	1	0	1	1	9351.03	1.27392	1.27348	0.00266165	2	-0.0134755	14	3.38956e-06
2	1	0	1	1	9368.03	1.29092	1.29045	0.0024092	2	-0.0134317	14	3.10895e-06
2	1	0	1	1	9385.03	1.30793	1.30743	0.00217307	2	-0.0133921	14	2.84114e-06
2	1	0	1	1	9402.04	1.32493	1.32442	0.00195561	2	-0.0133563	14	2.59005e-06
2	1	0	1	1	9419.04	1.34194	1.34142	0.00175914	2	-0.0133241	14	2.35976e-06
2	1	0	1	1	9436.05	1.35894	1.35848	0.0015838	2	-0.013295	14	2.15155e-06
2	1	0	1	1	9453.05	1.37595	1.37538	0.00143339	2	-0.0132687	14	1.97146e-06
2	1	0	1	1	9470.06	1.39295	1.39242	0.00130377	2	-0.0132448	14	1.81539e-06
2	1	0	1	1	9487.06	1.40995	1.40951	0.00119522	2	-0.013223	14	1.68467e-06
2	1	0	1	1	9504.06	1.42696	1.42645	0.00110584	2	-0.0132028	14	1.57743e-06
2	1	0	1	1	9521.07	1.44396	1.44342	0.00103183	2	-0.013184	14	1.48937e-06
2	1	0	1	1	9538.07	1.46097	1.46052	0.000970104	2	-0.0131663	14	1.41686e-06
2	1	0	1	1	9555.08	1.47797	1.47746	0.000921271	2	-0.0131496	14	1.36114e-06
2	1	0	1	1	9572.08	1.49497	1.49442	0.000880606	2	-0.0131337	14	1.316e-06
2	1	0	1	0	9587.68	1.48947	1.48896	0.000620655	3	-0.0131219	14	9.24129e-07
2	1	0	1	0	9604.69	1.47247	1.47194	0.000424868	3	-0.0131138	14	6.25382e-07
2	1	0	1	0	9621.69	1.45546	1.45493	0.000292173	3	-0.0131084	14	4.2509e-07
2	1	0	1	0	9638.7	1.43846	1.43799	0.000185854	3	-0.013105	14	2.67255e-07
2	1	0	1	0	9655.7	1.42146	1.42097	9.40075e-05	3	-0.0131032	14	1.33582e-07
2	1	0	1	0	9672.71	1.40445	1.4039	3.94595e-06	3	-0.013103	14	5.53972e-09
2	0	0	1	0	9689.71	1.38745	1.38696	-9.33921e-05	3	-0.0131043	14	-1.29531e-07
2	0	0	1	0	9706.71	1.37044	1.36992	-0.000213026	3	-0.0131075	14	-2.91828e-07
2	0	0	1	0	9723.72	1.35344	1.35291	-0.000364453	3	-0.0131129	14	-4.93073e-07
2	0	0	1	0	9740.72	1.33644	1.33594	-0.000565328	3	-0.0131214	14	-7.55246e-07
2	0	0	1	0	9757.73	1.31943	1.31889	-0.000829452	3	-0.0131338	14	-1.09395e-06
2	0	0	1	0	9774.73	1.30243	1.30189	-0.00116127	3	-0.0131512	14	-1.51184e-06
2	0	0	1	0	9791.74	1.28542	1.28501	-0.00155954	3	-0.0131749	14	-2.00402e-06
2	0	0	1	0	9808.74	1.26842	1.26794	-0.00201469	3	-0.0132058	14	-2.5545e-06
2	0	0	1	0	9825.74	1.25141	1.25089	-0.00249735	3	-0.0132448	14	-3.12391e-06
2	0	0	1	0	9842.75	1.23441	1.23391	-0.00297921	3	-0.013292	14	-3.67607e-06
2	0	0	1	0	9859.75	1.21741	1.21685	-0.00344369	3	-0.0133473	14	-4.19046e-06
2	0	0	1	0	9876.76	1.2004	1.19983	-0.00385894	3	-0.0134101	14	-4.63008e-06
2	0	0	1	0	9893.76	1.1834	1.1829	-0.00420982	3	-0.0134794	14	-4.97978e-06
2	0	0	1	0	9910.76	1.16639	1.16587	-0.00451318	3	-0.0135544	14	-5.26179e-06
2	0	0	1	0	9927.77	1.14939	1.14889	-0.00476734	3	-0.0136339	14	-5.47712e-06
2	0	0	1	0	9944.77	1.13238	1.13193	-0.00496914	3	-0.0137174	14	-5.62474e-06
2	0	0	1	0	9961.78	1.11538	1.11482	-0.0051732	3	-0.0138043	14	-5.76721e-06
2	0	0	1	0	9978.78	1.09838	1.09785	-0.00535603	3	-0.0138945	14	-5.88015e-06
2	0	0	1	0	9995.79	1.08137	1.08095	-0.00552967	3	-0.0139877	14	-5.97732e-06
2	0	0	1	0	10012.8	1.06437	1.06387	-0.00573991	3	-0.0140842	14	-6.10655e-06
2	0	0	1	0	10029.8	1.04736	1.04686	-0.00594297	3	-0.0141841	14	-6.22147e-06
2	0	0	1	0	10046.8	1.03036	1.02988	-0.00614341	3	-0.0142876	14	-6.32698e-06
2	0	0	1	0	10063.8	1.01336	1.01286	-0.00636173	3	-0.0143945	14	-6.44352e-06
2	0	0	1	0	10080.8	0.996351	0.995801	-0.00655653	3	-0.014505	14	-6.529e-06
2	0	0	1	0	10097.8	0.979347	0.978836	-0.00673516	3	-0.0146188	14	-6.59262e-06
2	0	0	1	0	10114.8	0.962343	0.961786	-0.00690536	3	-0.0147355	14	-6.64148e-06
2	0	0	1	0	10131.8	0.945339	0.944842	-0.00706742	3	-0.0148551	14	-6.67759e-06
2	0	0	1	0	10148.8	0.928334	0.927828	-0.00720906	3	-0.0149772	14	-6.68876e-06
2	0	0	1	0	10165.8	0.91133	0.910815	-0.00736448	3	-0.0151019	14	-6.70768e-06
2	0	0	1	0	10182.8	0.894326	0.893825	-0.00749202	3	-0.015229	14	-6.69655e-06
2	0	0	1	0	10199.8	0.877322	0.876858	-0.00764888	3	-0.0153586	14	-6.70699e-06
2	0	0	1	0	10216.8	0.860317	0.859788	-0.00780742	3	-0.0154909	14	-6.71273e-06
2	0	0	1	0	10233.8	0.843313	0.842807	-0.00799975	3	-0.0156262	14	-6.74224e-06
2	0	0	1	0	10250.8	0.826309	0.825851	-0.00819363	3	-0.0157648	14	-6.76672e-06
2	0	0	1	0	10267.9	0.809305	0.80882	-0.00839334	3	-0.0159067	14	-6.7887e-06
2	0	0	1	0	10284.9	0.792301	0.791827	-0.00856023	3	-0.0160518	14	-6.77822e-06
2	0	0	1	0	10301.9	0.775296	0.774838	-0.00873164	3	-0.0161998	14	-6.76561e-06
2	0	0	1	0	10318.9	0.758292	0.757856	-0.00893482	3	-0.0163509	14	-6.7713e-06
2	0	0	1	0	10335.9	0.741288	0.740839	-0.00914636	3	-0.0165055	14	-6.77598e-06
2	0	0	0	0	10352.9	0.724284	0.723842	-0.00942928	3	-0.0166643	14	-6.82531e-06
2	0	0	1	0	10369.9	0.707279	0.7068	-0.00980597	3	-0.0168287	14	-6.93085e-06
2	0	0	1	0	10386.9	0.690275	0.689752	-0.0102221	3	-0.0169999	14	-7.05069e-06
2	0	0	1	0	10403.9	0.673271	0.672821	-0.0106729	3	-0.0171786	14	-7.18095e-06
2	0	0	1	0	10420.9	0.656267	0.655829	-0.0111856	3	-0.0173655	13	-7.33586e-06
2	0	0	1	0	10437.9	0.639263	0.638825	-0.0116775	3	-0.0175609	13	-7.45991e-06
2	0	0	1	0	10454.9	0.622258	0.621876	-0.0121637	3	-0.0177647	13	-7.56435e-06
2	0	0	1	0	10471.9	0.605254	0.604819	-0.0127226	3	-0.0179774	13	-7.69488e-06
2	0	0	1	0	10488.9	0.58825	0.587811	-0.0132839	3	-0.0181994	13	-7.80844e-06
2	0	0	1	0	10505.9	0.571246	0.570879	-0.0138402	3	-0.0184312	13	-7.9011e-06
2	0	0	1	0	10522.9	0.554242	0.553835	-0.0144948	3	-0.0186725	13	-8.02771e-06
2	0	0	0	0	10539.9	0.537237	0.536837	-0.0151802	3	-0.0189257	13	-8.1493e-06
2	0	0	1	0	10556.9	0.520233	0.519809	-0.0158195	3	-0.0191902	13	-8.22312e-06
2	0	0	1	0	10573.9	0.503229	0.502813	-0.0165965	3	-0.019467	13	-8.34496e-06
2	0	0	1	0	10590.9	0.486225	0.48576	-0.0173484	3	-0.0197561	13	-8.42717e-06
2	0	0	1	0	10607.9	0.46922	0.468821	-0.0181209	3	-0.0200589	13	-8.49546e-06
2	0	0	1	0	10624.9	0.452216	0.451823	-0.0190927	3	-0.0203762	13	-8.62651e-06
2	0	0	1	0	10641.9	0.435212	0.434745	-0.0199836	3	-0.0207093	13	-8.68779e-06
2	0	0	1	0	10659	0.418208	0.417781	-0.0206883	3	-0.0210568	13	-8.64317e-06
2	0	0	1	0	10676	0.401204	0.400767	-0.0217527	3	-0.0214185	13	-8.71778e-06
2	0	0	1	0	10693	0.384199	0.38376	-0.0229176	3	-0.021799	13	-8.79485e-06
2	0	0	1	0	10710	0.367195	0.36682	-0.0239338	3	-0.0221975	13	-8.77939e-06
2	0	0	1	0	10727	0.350191	0.349839	-0.0250079	3	-0.0226144	13	-8.74875e-06
2	0	0	1	0	10744	0.333187	0.332744	-0.0258588	3	-0.0230496	13	-8.60438e-06
2	0	0	1	0	10761	0.316183	0.315813	-0.0264843	3	-0.0234962	13	-8.36409e-06
2	0	0	1	0	10778	0.299178	0.298788	-0.0276932	3	-0.0239574	13	-8.2744e-06
2	0	0	1	0	10795	0.282174	0.281758	-0.0290048	3	-0.0244396	13	-8.17234e-06
2	0	0	1	0	10812	0.26517	0.26473	-0.0294348	3	-0.0249364	13	-7.79229e-06
2	0	0	1	0	10829	0.248166	0.247754	-0.0304789	3	-0.0254456	13	-7.55127e-06
2	0	0	1	0	10846	0.231161	0.230775	-0.0318946	3	-0.0259751	13	-7.36048e-06
2	0	0	1	0	10863	0.214157	0.213741	-0.0335067	3	-0.026532	13	-7.16175e-06
2	0	0	1	0	10880	0.197153	0.196729	-0.0353	3	-0.0271154	13	-6.94454e-06
2	0	0	1	0	10897	0.180149	0.179693	-0.0378813	3	-0.0277379	13	-6.80702e-06
2	0	0	1	0	10914	0.163145	0.162731	-0.0405646	3	-0.0284049	13	-6.60111e-06
2	0	0	1	0	10931	0.14614	0.145784	-0.0442443	3	-0.0291226	13	-6.45011e-06
2	0	0	1	0	10948	0.129136	0.128743	-0.0517716	3	-0.0299335	13	-6.66522e-06
2	0	0	1	0	10965	0.112132	0.111752	-0.0622026	3	-0.0309009	13	-6.95123e-06
2	0	0	1	0	10982	0.0951279	0.0947402	-0.0731859	3	-0.0320528	13	-6.93365e-06
2	0	0	1	0	10999	0.0781237	0.0777255	-0.0837274	3	-0.0333887	13	-6.50776e-06
2	0	0	1	0	11016	0.0611194	0.0606854	-0.0933268	3	-0.0348961	13	-5.66358e-06
2	0	0	1	0	11033	0.0441152	0.0437312	-0.101924	3	-0.0365582	13	-4.45726e-06
2	0	0	1	0	11050	0.0271109	0.0266762	-0.109459	3	-0.0383576	13	-2.91996e-06
2	0	0	1	0	11066.9	0.0103067	0.00996923	-0.116136	3	-0.0402548	12	-1.15779e-06
2	0	0	1	0	11082.8	0.0255106	0.0250384	-0.0926346	3	-0.041911	12	-2.31943e-06
2	0	0	1	0	11099.8	0.0425148	0.042155	-0.07223	3	-0.0433054	12	-3.04485e-06
2	0	0	1	0	11116.8	0.059519	0.0591059	-0.0554099	3	-0.0443858	12	-3.27506e-06
2	0	0	1	0	11133.8	0.0765232	0.076094	-0.0409829	3	-0.0452019	13	-3.11855e-06
2	0	0	1	0	11150.8	0.0935275	0.0931289	-0.0282312	3	-0.0457876	13	-2.62914e-06
2	0	0	1	0	11167.8	0.110532	0.110194	-0.0168003	3	-0.0461682	13	-1.8513e-06
2	0	0	1	0	11184.8	0.127536	0.127166	-0.00646568	3	-0.0463641	13	-8.22218e-07
2	1	0	1	0	11201.9	0.14464	0.144286	0.00302232	3	-0.0463916	14	4.36079e-07
2	1	0	1	0	11218.9	0.161644	0.16122	0.0117325	3	-0.046265	13	1.89152e-06
2	1	0	1	0	11235.9	0.178648	0.178281	0.0200205	3	-0.045994	13	3.56928e-06
2	1	0	1	0	11252.9	0.195653	0.195267	0.0281371	3	-0.0455841	13	5.49425e-06
2	1	0	1	0	11269.9	0.212657	0.212263	0.0365393	3	-0.0450337	13	7.75595e-06
2	1	0	1	0	11286.9	0.229661	0.229236	0.0448428	3	-0.0443411	13	1.02796e-05
2	1	0	1	0	11303.9	0.246665	0.246283	0.0537247	3	-0.0435027	13	1.32315e-05
2	1	0	1	0	11320.9	0.26367	0.263254	0.0625865	3	-0.0425147	13	1.64761e-05
2	1	0	1	0	11337.9	0.280674	0.280289	0.0720077	3	-0.0413732	13	2.0183e-05
2	1	0	1	0	11354.9	0.297678	0.297279	0.0839511	3	-0.0400501	13	2.49569e-05
2	1	0	1	0	11371.9	0.314682	0.314305	0.0990384	3	-0.0384975	13	3.11283e-05
2	1	0	1	0	11388.9	0.331686	0.331273	0.121549	3	-0.0366356	12	4.02658e-05
2	1	0	1	0	11405.9	0.348691	0.348259	0.150034	3	-0.0343276	12	5.22508e-05
2	1	0	1	0	11422.9	0.365695	0.365276	0.168268	3	-0.0316011	12	6.14641e-05
2	1	0	1	0	11439.9	0.382699	0.382301	0.161839	3	-0.0287507	12	6.18712e-05
2	1	0	1	0	11456.9	0.399703	0.399237	0.12562	3	-0.0262779	12	5.01522e-05
2	1	0	1	0	11474	0.416708	0.416282	0.081395	3	-0.024521	12	3.38832e-05
2	1	0	1	0	11491	0.433712	0.433302	0.0493357	3	-0.023433	12	2.13773e-05
2	1	0	1	0	11508	0.450716	0.450313	0.0330347	3	-0.0227502	13	1.4876e-05
2	1	0	1	0	11525	0.46772	0.46733	0.0257037	3	-0.0222577	13	1.20121e-05
2	1	0	1	0	11542	0.484724	0.484297	0.0221007	3	-0.0218538	13	1.07033e-05
2	1	0	1	0	11559	0.501729	0.50131	0.0200358	3	-0.021496	13	1.00441e-05
2	1	0	1	0	11576	0.518733	0.518291	0.0185673	3	-0.0211675	13	9.62326e-06
2	1	0	1	0	11593	0.535737	0.535295	0.0173193	3	-0.0208611	13	9.27091e-06
2	1	0	1	0	11610	0.552741	0.552335	0.0163238	3	-0.0205743	13	9.01623e-06
2	1	0	1	0	11627	0.569745	0.56934	0.0153827	3	-0.020304	13	8.75797e-06
2	1	0	0	0	11644	0.58675	0.586343	0.0145515	3	-0.0200486	13	8.53215e-06
2	1	0	1	0	11661	0.603754	0.603368	0.0137832	3	-0.019807	13	8.31634e-06
2	1	0	1	0	11678	0.620758	0.620321	0.0130696	3	-0.0195776	13	8.10732e-06
2	1	0	1	0	11695	0.637762	0.637281	0.0124464	3	-0.0193597	13	7.93186e-06
2	1	0	1	0	11712	0.654767	0.654309	0.0118549	3	-0.0191523	13	7.75679e-06
2	1	0	1	0	11729	0.671771	0.671329	0.0113027	3	-0.0189546	13	7.58783e-06
2	1	0	1	0	11746	0.688775	0.68832	0.0107461	3	-0.0187663	13	7.39674e-06
2	1	0	1	0	11763	0.705779	0.705287	0.0102664	3	-0.0185867	13	7.24079e-06
2	1	0	1	0	11780	0.722783	0.722369	0.00978741	3	-0.0184154	13	7.07012e-06
2	1	0	1	0	11797	0.739788	0.73937	0.00931109	3	-0.0182523	13	6.88434e-06
2	1	0	1	0	11814	0.756792	0.756333	0.00895925	3	-0.0180962	13	6.77618e-06
2	1	0	0	0	11831	0.773796	0.77332	0.00865919	3	-0.0179458	13	6.69633e-06
2	1	0	1	0	11848	0.7908	0.790324	0.00841327	3	-0.0177999	13	6.64921e-06
2	1	0	1	0	11865	0.807804	0.807296	0.00825125	3	-0.0176573	13	6.6612e-06
2	1	0	1	0	11882.1	0.824809	0.824342	0.00811445	3	-0.0175175	13	6.68908e-06
2	1	0	1	0	11899.1	0.841813	0.841279	0.00791229	3	-0.0173805	13	6.65644e-06
2	1	0	1	0	11916.1	0.858817	0.85835	0.0077454	3	-0.0172465	13	6.64827e-06
2	1	0	1	0	11933.1	0.875821	0.875336	0.00757778	3	-0.0171156	13	6.6331e-06
2	1	0	1	0	11950.1	0.892825	0.892328	0.00737662	3	-0.0169878	13	6.58237e-06
2	1	0	1	0	11967.1	0.90983	0.909369	0.00722766	3	-0.0168628	13	6.57261e-06
2	1	0	1	0	11984.1	0.926834	0.926366	0.00710238	3	-0.0167403	13	6.57941e-06
2	1	0	1	0	12001.1	0.943838	0.943342	0.00694315	3	-0.0166203	13	6.54977e-06
2	1	0	1	0	12018.1	0.960842	0.960385	0.00681683	3	-0.0165025	13	6.54678e-06
2	1	0	1	0	12035.1	0.977847	0.977386	0.00668761	3	-0.0163871	13	6.53637e-06
2	1	0	1	0	12052.1	0.994851	0.994342	0.00651056	3	-0.0162742	13	6.47373e-06
2	1	0	1	0	12069.1	1.01185	1.01134	0.00633998	3	-0.0161642	13	6.41186e-06
2	1	0	1	0	12086.1	1.02886	1.02842	0.00617344	3	-0.0160572	13	6.34889e-06
2	1	0	1	0	12103.1	1.04586	1.04537	0.00595222	3	-0.0159536	13	6.22225e-06
2	1	0	1	0	12120.1	1.06287	1.06239	0.00573432	3	-0.0158535	13	6.09207e-06
2	1	0	1	0	12137.1	1.07987	1.0794	0.00553246	3	-0.0157572	13	5.97175e-06
2	1	0	1	0	12154.1	1.09688	1.09644	0.00530034	3	-0.0156645	13	5.8115e-06
2	1	0	1	0	12171.1	1.11388	1.11337	0.00506334	3	-0.0155758	13	5.63738e-06
2	1	0	1	0	12188.1	1.13088	1.13038	0.00484171	3	-0.0154909	13	5.473e-06
2	1	0	1	0	12205.1	1.14789	1.14742	0.00459643	3	-0.0154102	13	5.27405e-06
2	1	0	1	0	12222.1	1.16489	1.16438	0.00434526	3	-0.0153336	14	5.05955e-06
2	1	0	1	0	12239.1	1.1819	1.18142	0.0041001	3	-0.0152612	14	4.84395e-06
2	1	0	0	0	12256.1	1.1989	1.19839	0.00383869	3	-0.0151931	14	4.60023e-06
2	1	0	1	0	12273.2	1.21591	1.21541	0.00356829	3	-0.0151296	14	4.33693e-06
2	1	0	1	0	12290.2	1.23291	1.23241	0.00330404	3	-0.0150705	14	4.07194e-06
2	1	0	1	0	12307.2	1.24991	1.24946	0.00303375	3	-0.0150161	14	3.79054e-06
2	1	0	1	0	12324.2	1.26692	1.26642	0.00276613	3	-0.0149663	14	3.50307e-06
2	1	0	1	0	12341.2	1.28392	1.28345	0.00251253	3	-0.0149208	14	3.22471e-06
2	1	0	1	0	12358.2	1.30093	1.30039	0.0022704	3	-0.0148796	14	2.95241e-06
2	1	0	1	0	12375.2	1.31793	1.31741	0.00204434	3	-0.0148424	14	2.69323e-06
2	1	0	1	0	12392.2	1.33493	1.33444	0.00184118	3	-0.0148088	14	2.45694e-06
2	1	0	1	0	12409.2	1.35194	1.35144	0.00165985	3	-0.0147786	14	2.2432e-06
2	1	0	1	0	12426.2	1.36894	1.36848	0.00150054	3	-0.0147512	14	2.05347e-06
2	1	0	1	0	12443.2	1.38595	1.38545	0.00136549	3	-0.0147263	14	1.89182e-06
2	1	0	1	0	12460.2	1.40295	1.40249	0.00124963	3	-0.0147035	14	1.7526e-06
2	1	0	1	0	12477.2	1.41996	1.41943	0.00115199	3	-0.0146826	14	1.63517e-06
2	1	0	1	0	12494.2	1.43696	1.43648	0.00107264	3	-0.0146632	14	1.54083e-06
2	1	0	1	0	12511.2	1.45396	1.45347	0.00100552	3	-0.014645	14	1.4615e-06
2	1	0	1	0	12528.2	1.47097	1.47049	0.000951795	3	-0.0146278	14	1.39961e-06
2	1	0	1	0	12545.2	1.48797	1.48752	0.000908812	3	-0.0146115	14	1.35187e-06
2	1	0	1	1	12560.8	1.50358	1.50306	0.000876185	3	-0.0145971	14	1.31696e-06
2	1	0	1	1	12577.8	1.52058	1.52007	0.000847053	3	-0.0145819	14	1.28758e-06
2	1	0	1	1	12594.8	1.53759	1.53711	0.00082485	3	-0.0145671	14	1.26788e-06
2	1	0	1	1	12611.8	1.55459	1.55413	0.000805907	3	-0.0145527	14	1.25248e-06
2	1	0	1	1	12628.8	1.57159	1.57107	0.000794825	3	-0.0145386	14	1.24872e-06
2	1	0	1	1	12645.8	1.5886	1.58808	0.000785092	3	-0.0145247	14	1.24679e-06
2	1	0	1	1	12662.8	1.6056	1.60508	0.000777511	3	-0.0145109	14	1.24796e-06
2	1	0	1	1	12679.9	1.62261	1.62208	0.000771601	3	-0.0144972	14	1.2516e-06
2	1	0	1	1	12696.9	1.63961	1.63907	0.000768803	3	-0.0144835	14	1.26012e-06
2	1	0	1	1	12713.9	1.65661	1.6561	0.000766983	3	-0.01447	14	1.2702e-06
2	1	0	0	1	12730.9	1.67362	1.67309	0.000766832	3	-0.0144564	14	1.28298e-06
2	1	0	1	1	12747.9	1.69062	1.69011	0.000766764	3	-0.0144429	14	1.29592e-06
2	1	0	1	1	12764.9	1.70763	1.70712	0.000768645	3	-0.0144293	14	1.31217e-06
2	1	0	1	1	12781.9	1.72463	1.72413	0.000770909	3	-0.0144157	14	1.32914e-06
2	1	0	1	1	12798.9	1.74164	1.74111	0.000774825	3	-0.014402	14	1.34906e-06
2	1	0	1	1	12815.9	1.75864	1.75816	0.000779448	3	-0.0143883	14	1.37039e-06
2	1	0	1	1	12832.9	1.77564	1.77515	0.000782783	3	-0.0143745	14	1.38956e-06
2	1	0	1	1	12849.9	1.79265	1.79215	0.000786201	3	-0.0143607	14	1.40899e-06
2	1	0	1	1	12866.9	1.80965	1.80913	0.000791029	3	-0.0143468	14	1.43107e-06
2	1	0	1	1	12883.9	1.82666	1.82614	0.000793685	3	-0.0143328	14	1.44938e-06
2	1	0	1	1	12900.9	1.84366	1.84311	0.000795945	3	-0.0143188	14	1.46702e-06
2	1	0	1	1	12917.9	1.86067	1.86018	0.000798954	3	-0.0143047	14	1.4862e-06
2	1	0	1	1	12934.9	1.87767	1.87719	0.000801005	3	-0.0142906	14	1.50364e-06
2	1	0	1	1	12951.9	1.89467	1.89418	0.00080242	3	-0.0142765	14	1.51993e-06
2	1	0	1	1	12968.9	1.91168	1.91114	0.000805308	3	-0.0142623	14	1.53906e-06
2	1	0	1	1	12985.9	1.92868	1.92818	0.000805749	3	-0.0142481	14	1.55363e-06
2	1	0	1	1	13002.9	1.94569	1.94515	0.000806913	3	-0.0142339	14	1.56957e-06
2	1	0	1	1	13019.9	1.96269	1.96218	0.000808364	3	-0.0142197	14	1.58615e-06
2	1	0	0	1	13036.9	1.97969	1.97917	0.000809942	3	-0.0142054	14	1.60301e-06
2	1	0	1	1	13053.9	1.9967	1.99619	0.000811037	3	-0.0141911	14	1.61898e-06
2	1	0	1	1	13070.9	2.0137	2.01323	0.000814395	3	-0.0141768	14	1.63956e-06
2	1	0	1	1	13088	2.03071	2.03021	0.000817447	3	-0.0141625	14	1.65959e-06
2	1	0	1	1	13105	2.04771	2.04716	0.000819936	3	-0.0141481	14	1.67854e-06
2	1	0	1	1	13122	2.06472	2.06425	0.00082538	3	-0.0141336	14	1.70379e-06
2	1	0	1	1	13139	2.08172	2.08121	0.000830919	3	-0.0141191	14	1.72932e-06
2	1	0	1	1	13156	2.09872	2.09817	0.000838174	3	-0.0141044	14	1.75863e-06
2	1	0	1	1	13173	2.11573	2.11526	0.00084736	3	-0.0140896	14	1.79239e-06
2	1	0	1	1	13190	2.13273	2.13223	0.000856809	3	-0.0140746	14	1.82691e-06
2	1	0	1	1	13207	2.14974	2.14929	0.000868308	3	-0.0140595	14	1.86625e-06
2	1	0	1	1	13224	2.16674	2.16624	0.000881504	3	-0.0140441	14	1.90955e-06
2	1	0	1	1	13241	2.18375	2.18324	0.00089412	3	-0.0140285	14	1.95208e-06
2	1	0	1	1	13258	2.20075	2.20023	0.000907537	3	-0.0140127	14	1.99679e-06
2	1	0	1	1	13275	2.21775	2.2172	0.000921027	3	-0.0139967	14	2.0421e-06
2	1	0	1	1	13292	2.23476	2.23424	0.000935292	3	-0.0139804	14	2.08967e-06
2	1	0	1	1	13309	2.25176	2.2513	0.000948107	3	-0.0139639	14	2.13447e-06
2	1	0	1	1	13326	2.26877	2.2682	0.000961439	3	-0.0139472	14	2.18074e-06
2	1	0	1	1	13343	2.28577	2.28527	0.000974915	3	-0.0139303	14	2.22795e-06
2	1	0	1	1	13360	2.30277	2.30226	0.000986979	3	-0.0139131	14	2.27228e-06
2	1	0	1	1	13377	2.31978	2.31928	0.00099826	3	-0.0138957	14	2.31525e-06
2	1	0	1	1	13394	2.33678	2.33627	0.00101047	3	-0.0138782	14	2.36073e-06
2	1	0	1	1	13411	2.35379	2.35333	0.00102148	3	-0.0138604	14	2.40388e-06
2	1	0	1	1	13428	2.37079	2.37031	0.00103077	3	-0.0138425	14	2.44325e-06
2	1	0	1	1	13445	2.3878	2.3873	0.00103981	3	-0.0138244	14	2.48234e-06
2	1	0	1	1	13462	2.4048	2.40431	0.00104752	3	-0.0138062	14	2.51857e-06
2	1	0	1	1	13479.1	2.4218	2.42131	0.0010553	3	-0.0137879	14	2.55522e-06
2	1	0	1	1	13496.1	2.43881	2.43828	0.00106219	3	-0.0137694	14	2.58992e-06
2	1	0	1	1	13513.1	2.45581	2.45534	0.00106853	3	-0.0137509	14	2.62361e-06
2	1	0	1	1	13530.1	2.47282	2.47234	0.00107525	3	-0.0137322	14	2.65838e-06
2	1	0	1	1	13547.1	2.48982	2.48931	0.00108121	3	-0.0137134	14	2.69147e-06
2	1	0	1	1	13564.1	2.50683	2.50626	0.00108593	3	-0.0136946	14	2.72163e-06
2	1	0	1	1	13581.1	2.52383	2.52327	0.0010915	3	-0.0136756	14	2.75416e-06
2	1	0	1	1	13598.1	2.54083	2.5403	0.00109645	3	-0.0136566	14	2.78531e-06
2	1	0	1	1	13615.1	2.55784	2.55724	0.00110331	3	-0.0136375	14	2.82143e-06
2	1	0	1	1	13632.1	2.57484	2.57429	0.00111023	3	-0.0136182	14	2.85804e-06
2	1	0	1	1	13649.1	2.59185	2.59131	0.00111578	3	-0.0135989	14	2.89133e-06
2	1	0	1	1	13666.1	2.60885	2.60832	0.00112162	3	-0.0135794	14	2.92553e-06
2	1	0	1	1	13683.1	2.62586	2.62526	0.00112646	3	-0.0135599	14	2.95725e-06
2	1	0	1	1	13700.1	2.64286	2.64233	0.00113293	3	-0.0135403	14	2.99358e-06
2	1	0	1	1	13717.1	2.65986	2.65932	0.00113765	3	-0.0135206	14	3.02536e-06
2	1	0	1	1	13734.1	2.67687	2.67632	0.00114307	3	-0.0135008	14	3.05923e-06
2	1	0	1	1	13751.1	2.69387	2.69336	0.00115059	3	-0.0134809	14	3.09896e-06
2	1	0	1	1	13768.1	2.71088	2.7103	0.00115538	3	-0.0134609	14	3.13142e-06
2	1	0	1	1	13774	2.71673	2.71625	0.00115879	3	-0.013454	14	3.14756e-06