File: EC-MS Data/Graphite vs Li in EC-Free/Raw EC/EC032_EC_free_G_vs_Li_02_CV_C01.mpt
EC-Lab ASCII FILE
Nb header lines : 59

Cyclic Voltammetry

Run on channel : 1 (SN 39219)
User :
CE vs. WE compliance from -10 V to 10 V
Electrode connection : standard
Ewe ctrl range : min = -10.00 V, max = 10.00 V
Safety Limits :
	Do not start on E overload
Acquisition started on : 05/12/2022 18:29:02.056
Technique started on : 05/12/2022 18:59:02.414
Loaded Setting File :  D:\EC-Lab\Faraday\Graphite vs Li\EC023\EC021_CV_01mvs.mps
Saved on :
	File : EC032_EC_free_G_vs_Li_02_CV_C01.mpr
	Directory : D:\EC-Lab\Faraday\Graphite vs Li\EC032\
	Host : 192.109.209.130
Device : SP-150 (SN 1485)
Address : 192.109.209.135
EC-Lab for windows v11.36 (software)
Internet server v11.36 (firmware)
Command interpretor v11.36 (firmware)
Electrode material :
Initial state :
Electrolyte :
Comments :
Electrode surface area : 0.001 cm²
Characteristic mass : 0.001 g
Equivalent Weight : 0.000 g/eq.
Density : 0.000 g/cm3
Cycle Definition : Charge/Discharge alternance
Ei (V)              0.000
vs.                 Eoc
dE/dt               1.000
dE/dt unit          mV/s
E1 (V)              0.010
vs.                 Ref
Step percent        50
N                   10
E range min (V)     -10.000
E range max (V)     10.000
I Range             Auto
I Range min         Unset
I Range max         Unset
I Range init        Unset
Bandwidth           4
E2 (V)              1.000
vs.                 Ref
nc cycles           9
Reverse Scan        1
Ef (V)              0.000
vs.                 Eoc

Modify on : 05/12/2022 19:37
dE/dt               1.500

mode	ox/red	error	control changes	counter inc.	time/s	control/V	Ewe/V	<I>/mA	cycle number	(Q-Qo)/C	I Range	P/W
2	0	0	0	0	1800.36	1.79631	1.79583	-0.000453253	1	0.0000000E+000	14	-8.13967e-07
2	0	0	1	0	1832.87	1.7638	1.76325	-0.00132037	1	-4.29193e-05	14	-2.32814e-06
2	0	0	1	0	1866.77	1.7299	1.72937	-0.00151435	1	-9.62714e-05	14	-2.61888e-06
2	0	0	1	0	1900.67	1.696	1.69549	-0.00164603	1	-0.000154582	14	-2.79083e-06
2	0	0	1	0	1934.57	1.6621	1.66158	-0.00179702	1	-0.000217617	14	-2.9859e-06
2	0	0	1	0	1968.47	1.6282	1.62766	-0.0019888	1	-0.000286494	14	-3.2371e-06
2	0	0	1	0	2002.37	1.5943	1.59377	-0.00221015	1	-0.000362527	14	-3.52246e-06
2	0	0	1	0	2036.27	1.5604	1.55987	-0.00245003	1	-0.000446593	14	-3.82172e-06
2	0	0	1	0	2070.17	1.5265	1.526	-0.0026978	1	-0.000538701	14	-4.11685e-06
2	0	0	1	0	2104.07	1.4926	1.49203	-0.00304759	1	-0.000640807	14	-4.54709e-06
2	0	0	1	0	2137.97	1.4587	1.45823	-0.00350665	1	-0.000756067	14	-5.11349e-06
2	0	0	1	0	2171.87	1.4248	1.42429	-0.00423786	1	-0.000891037	14	-6.03593e-06
2	0	0	1	0	2205.77	1.3909	1.39039	-0.00550259	1	-0.0010592	14	-7.65073e-06
2	0	0	1	0	2239.67	1.357	1.3565	-0.00789408	1	-0.00128742	14	-1.07084e-05
2	0	0	1	0	2273.57	1.3231	1.32253	-0.0122503	1	-0.00162784	13	-1.62015e-05
2	0	0	1	0	2307.47	1.2892	1.2887	-0.0192744	1	-0.00215907	13	-2.48388e-05
2	0	0	1	0	2341.37	1.2553	1.25474	-0.0294816	1	-0.00298385	13	-3.69918e-05
2	0	0	1	0	2375.27	1.2214	1.22087	-0.0415402	1	-0.00418954	13	-5.07152e-05
2	0	0	1	0	2409.17	1.1875	1.187	-0.0538857	1	-0.00581421	13	-6.39624e-05
2	0	0	1	0	2443.07	1.1536	1.15309	-0.065314	1	-0.00784469	13	-7.53131e-05
2	0	0	1	0	2476.97	1.1197	1.11923	-0.0752126	1	-0.0102383	13	-8.418e-05
2	0	0	1	0	2510.87	1.0858	1.08525	-0.0835762	1	-0.0129437	13	-9.07007e-05
2	0	0	1	0	2544.77	1.0519	1.05133	-0.0899812	1	-0.0158935	13	-9.46003e-05
2	0	0	1	0	2578.67	1.018	1.01742	-0.0955429	1	-0.0190472	13	-9.72072e-05
2	0	0	1	0	2612.57	0.984104	0.98361	-0.100254	1	-0.0223694	13	-9.8611e-05
2	0	0	1	0	2646.47	0.950204	0.949708	-0.104884	1	-0.0258509	13	-9.96094e-05
2	0	0	1	0	2680.37	0.916304	0.915867	-0.109943	1	-0.0294986	12	-0.000100694
2	0	0	1	0	2714.27	0.882404	0.881929	-0.114458	1	-0.0333086	12	-0.000100944
2	0	0	1	0	2748.17	0.848504	0.847996	-0.118844	1	-0.037268	12	-0.00010078
2	0	0	1	0	2782.07	0.814604	0.814095	-0.123213	1	-0.041374	12	-0.000100307
2	0	0	1	0	2815.97	0.780704	0.780147	-0.128174	1	-0.0456361	12	-9.99946e-05
2	0	0	1	0	2849.87	0.746805	0.746265	-0.133918	1	-0.0500782	12	-9.99385e-05
2	0	0	1	0	2883.77	0.712905	0.712409	-0.140772	1	-0.0547351	12	-0.000100287
2	0	0	1	0	2917.67	0.679005	0.678544	-0.14916	1	-0.0596607	12	-0.000101212
2	0	0	1	0	2951.57	0.645105	0.64462	-0.158481	1	-0.0648767	12	-0.00010216
2	0	0	1	0	2985.47	0.611205	0.610652	-0.169682	1	-0.0704373	12	-0.000103617
2	0	0	1	0	3019.37	0.577305	0.576832	-0.183649	1	-0.076423	12	-0.000105935
2	0	0	1	0	3053.27	0.543405	0.542934	-0.201115	1	-0.0829367	12	-0.000109192
2	0	0	1	0	3087.17	0.509506	0.509043	-0.222001	1	-0.0901033	12	-0.000113008
2	0	0	1	0	3121.07	0.475606	0.475196	-0.255455	1	-0.0982225	12	-0.000121391
2	0	0	1	0	3154.97	0.441706	0.441289	-0.293431	1	-0.107526	12	-0.000129488
2	0	0	1	0	3188.87	0.407806	0.407337	-0.337078	1	-0.118224	12	-0.000137304
2	0	0	1	0	3222.77	0.373906	0.37347	-0.382742	1	-0.130459	12	-0.000142943
2	0	0	1	0	3256.67	0.340006	0.339499	-0.433228	1	-0.144336	12	-0.00014708
2	0	0	1	0	3290.57	0.306107	0.30563	-0.481068	1	-0.159819	12	-0.000147029
2	0	0	1	0	3324.46	0.272207	0.271777	-0.521877	1	-0.176816	12	-0.000141834
2	0	0	1	0	3358.36	0.238307	0.237885	-0.558616	1	-0.195162	12	-0.000132886
2	0	0	1	0	3392.26	0.204407	0.204076	-0.589411	1	-0.214622	12	-0.000120285
2	0	0	1	0	3426.16	0.170507	0.170139	-0.622997	1	-0.23518	12	-0.000105996
2	0	0	1	0	3460.06	0.136607	0.136213	-0.65194	1	-0.256842	12	-8.88029e-05
2	0	0	1	0	3493.96	0.102707	0.102271	-0.698536	1	-0.279821	12	-7.14399e-05
2	0	0	1	0	3527.86	0.0688077	0.0683552	-0.722906	1	-0.304008	12	-4.94143e-05
2	0	0	1	0	3561.76	0.0349079	0.0344045	-0.75827	1	-0.329178	12	-2.60879e-05
2	0	0	1	0	3591.35	0.0148761	0.0144801	-0.757555	1	-0.351946	12	-1.09695e-05
2	0	0	1	0	3625.25	0.0487759	0.048416	-0.605347	1	-0.374809	12	-2.93085e-05
2	0	0	1	0	3659.15	0.0826758	0.0822703	-0.491129	1	-0.393247	12	-4.04053e-05
2	0	0	1	0	3693.05	0.116576	0.116202	-0.390042	1	-0.408068	12	-4.53236e-05
2	0	0	1	0	3726.95	0.150475	0.150009	-0.303762	1	-0.419738	12	-4.55671e-05
2	0	0	1	0	3760.85	0.184375	0.183961	-0.2243	1	-0.428605	12	-4.12625e-05
2	0	0	1	0	3794.75	0.218275	0.217809	-0.153183	1	-0.43494	12	-3.33648e-05
2	0	0	1	0	3828.65	0.252175	0.251783	-0.0894311	1	-0.439009	12	-2.25172e-05
2	0	0	1	0	3862.55	0.286075	0.285661	-0.0328851	1	-0.441051	13	-9.39397e-06
2	1	0	1	0	3896.45	0.319975	0.319549	0.0187017	1	-0.441274	13	5.97612e-06
2	1	0	1	0	3930.35	0.353875	0.35341	0.0662631	1	-0.439808	13	2.3418e-05
2	1	0	1	0	3964.25	0.387774	0.387278	0.11028	1	-0.436779	13	4.27088e-05
2	1	0	1	0	3998.15	0.421674	0.421192	0.15189	1	-0.432303	12	6.39749e-05
2	1	0	1	0	4032.05	0.455574	0.455044	0.189127	1	-0.42649	12	8.60611e-05
2	1	0	1	0	4065.95	0.489474	0.489056	0.225441	1	-0.419424	12	0.000110253
2	1	0	1	0	4099.85	0.523374	0.522948	0.262471	1	-0.411111	12	0.000137259
2	1	0	1	0	4133.75	0.557274	0.556827	0.294134	1	-0.401656	12	0.000163782
2	1	0	1	0	4157.29	0.591174	0.59072	0.347605	1	-0.394081	12	0.000205337
2	1	0	1	0	4179.89	0.625073	0.624534	0.386679	1	-0.385756	12	0.000241494
2	1	0	1	0	4202.49	0.658973	0.658502	0.416176	1	-0.376658	12	0.000274052
2	1	0	1	0	4225.09	0.692873	0.692317	0.435993	1	-0.367	12	0.000301845
2	1	0	1	0	4247.69	0.726773	0.726325	0.446893	1	-0.356999	12	0.00032459
2	1	0	1	0	4270.29	0.760673	0.760191	0.448837	1	-0.346855	12	0.000341202
2	1	0	1	0	4292.89	0.794572	0.794124	0.444268	1	-0.336743	12	0.000352804
2	1	0	1	0	4315.49	0.828472	0.827973	0.432644	1	-0.326818	12	0.000358218
2	1	0	1	0	4338.09	0.862372	0.861888	0.415843	1	-0.317213	12	0.00035841
2	1	0	1	0	4360.69	0.896272	0.895775	0.396583	1	-0.308022	12	0.00035525
2	1	0	1	0	4383.29	0.930172	0.929638	0.375621	1	-0.299283	12	0.000349192
2	1	0	1	0	4405.89	0.964072	0.963569	0.353174	1	-0.291038	12	0.000340308
2	1	0	1	0	4428.49	0.997972	0.997444	0.329988	1	-0.283311	12	0.000329144
2	1	0	1	1	4447.39	0.973625	0.973162	0.172614	2	-0.278684	12	0.000167981
2	1	0	1	1	4469.99	0.939726	0.939204	0.073014	2	-0.276029	12	6.85751e-05
2	1	0	1	1	4492.59	0.905826	0.905319	0.0104548	2	-0.275137	13	9.46493e-06
2	0	0	1	1	4515.19	0.871926	0.871428	-0.035274	2	-0.275452	13	-3.07387e-05
2	0	0	1	1	4537.79	0.838026	0.83761	-0.0710841	2	-0.276679	13	-5.95408e-05
2	0	0	1	1	4560.39	0.804126	0.803654	-0.101736	2	-0.278652	13	-8.17602e-05
2	0	0	1	1	4582.99	0.770226	0.769673	-0.128968	2	-0.281277	12	-9.92631e-05
2	0	0	1	1	4605.59	0.736327	0.735835	-0.153085	2	-0.284482	12	-0.000112645
2	0	0	1	1	4628.19	0.702427	0.7019	-0.175413	2	-0.288205	12	-0.000123122
2	0	0	1	1	4650.79	0.668527	0.667962	-0.197955	2	-0.292428	12	-0.000132226
2	0	0	1	1	4673.39	0.634627	0.634189	-0.221398	2	-0.297175	12	-0.000140408
2	0	0	1	1	4695.99	0.600727	0.600272	-0.245886	2	-0.302469	12	-0.000147599
2	0	0	1	1	4718.59	0.566827	0.566364	-0.270311	2	-0.308311	12	-0.000153094
2	0	0	1	1	4741.19	0.532927	0.532421	-0.29621	2	-0.314725	12	-0.000157708
2	0	0	1	1	4763.79	0.499028	0.498584	-0.322234	2	-0.321722	12	-0.000160661
2	0	0	1	1	4786.39	0.465128	0.46467	-0.349092	2	-0.329314	12	-0.000162213
2	0	0	1	1	4808.99	0.431228	0.43077	-0.373548	2	-0.337485	12	-0.000160913
2	0	0	1	1	4831.59	0.397328	0.396788	-0.397138	2	-0.346204	12	-0.00015758
2	0	0	1	1	4854.19	0.363428	0.362946	-0.420399	2	-0.355454	12	-0.000152582
2	0	0	1	1	4876.79	0.329528	0.329057	-0.441191	2	-0.365208	12	-0.000145177
2	0	0	1	1	4899.39	0.295629	0.295212	-0.460527	2	-0.375408	12	-0.000135953
2	0	0	1	1	4921.99	0.261729	0.261272	-0.481666	2	-0.386046	12	-0.000125846
2	0	0	1	1	4944.59	0.227829	0.227369	-0.512839	2	-0.397274	12	-0.000116604
2	0	0	1	1	4967.19	0.193929	0.193509	-0.547305	2	-0.409262	12	-0.000105909
2	0	0	1	1	4989.79	0.160029	0.15963	-0.573727	2	-0.421923	12	-9.15843e-05
2	0	0	1	1	5012.39	0.126129	0.125736	-0.605754	2	-0.435261	12	-7.6165e-05
2	0	0	1	1	5034.99	0.0922294	0.0917736	-0.637511	2	-0.449322	12	-5.85066e-05
2	0	0	1	1	5057.59	0.0583296	0.0578685	-0.669035	2	-0.464097	12	-3.8716e-05
2	0	0	1	1	5080.19	0.0244297	0.0240111	-0.699171	2	-0.479557	12	-1.67878e-05
2	0	0	1	1	5099.09	0.0241215	0.0236865	-0.638097	2	-0.492597	12	-1.51143e-05
2	0	0	1	1	5121.69	0.0580214	0.0576054	-0.493895	2	-0.505298	12	-2.8451e-05
2	0	0	1	1	5144.29	0.0919212	0.0915137	-0.377379	2	-0.515089	12	-3.45353e-05
2	0	0	1	1	5166.89	0.125821	0.125455	-0.279395	2	-0.522466	12	-3.50515e-05
2	0	0	1	1	5189.49	0.159721	0.159352	-0.193699	2	-0.527781	12	-3.08662e-05
2	0	0	1	1	5212.09	0.193621	0.193168	-0.118962	2	-0.531291	12	-2.29797e-05
2	0	0	1	1	5234.69	0.227521	0.227063	-0.0495865	2	-0.533168	12	-1.12593e-05
2	1	0	1	1	5257.29	0.261421	0.260993	0.0134659	2	-0.533557	13	3.5145e-06
2	1	0	1	1	5279.89	0.29532	0.294894	0.0732048	2	-0.532572	13	2.15876e-05
2	1	0	1	1	5302.49	0.32922	0.328767	0.128307	2	-0.530281	12	4.2183e-05
2	1	0	1	1	5325.09	0.36312	0.362655	0.180681	2	-0.526779	12	6.55248e-05
2	1	0	1	1	5347.69	0.39702	0.396591	0.230013	2	-0.522128	12	9.12212e-05
2	1	0	1	1	5370.29	0.43092	0.430453	0.278615	2	-0.516373	12	0.000119931
2	1	0	1	1	5392.89	0.46482	0.464363	0.334203	2	-0.509465	12	0.000155191
2	1	0	1	1	5415.49	0.498719	0.498287	0.400421	2	-0.501155	12	0.000199525
2	1	0	1	1	5438.09	0.532619	0.532171	0.457492	2	-0.491422	12	0.000243464
2	1	0	1	1	5460.69	0.566519	0.566122	0.499978	2	-0.480565	12	0.000283049
2	1	0	1	1	5483.29	0.600419	0.60001	0.528879	2	-0.468914	12	0.000317333
2	1	0	1	1	5505.89	0.634319	0.633845	0.547047	2	-0.45673	12	0.000346743
2	1	0	1	1	5528.49	0.668219	0.667714	0.556714	2	-0.444237	12	0.000371726
2	1	0	1	1	5551.09	0.702119	0.701629	0.557551	2	-0.431619	12	0.000391194
2	1	0	1	1	5573.69	0.736018	0.735547	0.551958	2	-0.419063	12	0.000405991
2	1	0	1	1	5596.29	0.769918	0.76945	0.540493	2	-0.406688	12	0.000415883
2	1	0	1	1	5618.89	0.803818	0.803365	0.525979	2	-0.394614	12	0.000422553
2	1	0	1	1	5641.49	0.837718	0.837253	0.507156	2	-0.382939	12	0.000424618
2	1	0	1	1	5664.09	0.871618	0.871109	0.48252	2	-0.371742	12	0.000420328
2	1	0	1	1	5686.69	0.905518	0.905057	0.45552	2	-0.361127	12	0.000412271
2	1	0	1	1	5709.29	0.939417	0.938938	0.427898	2	-0.351127	12	0.00040177
2	1	0	1	1	5731.89	0.973317	0.972806	0.401484	2	-0.341752	12	0.000390566
2	1	0	1	0	5750.79	0.99828	0.997725	0.36184	3	-0.334395	12	0.000361017
2	1	0	1	0	5773.39	0.96438	0.96389	0.174754	3	-0.328699	12	0.000168444
2	1	0	1	0	5795.99	0.93048	0.929987	0.0813814	3	-0.325905	12	7.56837e-05
2	1	0	1	0	5818.59	0.89658	0.896052	0.0188255	3	-0.32482	13	1.68686e-05
2	0	0	1	0	5841.19	0.862681	0.862167	-0.0285831	3	-0.324962	13	-2.46434e-05
2	0	0	1	0	5863.79	0.828781	0.828326	-0.0663745	3	-0.326059	13	-5.49797e-05
2	0	0	1	0	5886.39	0.794881	0.794465	-0.098008	3	-0.327939	13	-7.7864e-05
2	0	0	1	0	5908.99	0.760981	0.760489	-0.125617	3	-0.330488	12	-9.55301e-05
2	0	0	1	0	5931.59	0.727081	0.726611	-0.151116	3	-0.333628	12	-0.000109803
2	0	0	1	0	5954.19	0.693181	0.692676	-0.175488	3	-0.337337	12	-0.000121556
2	0	0	1	0	5976.79	0.659281	0.658782	-0.199295	3	-0.341582	12	-0.000131292
2	0	0	1	0	5999.39	0.625382	0.624855	-0.223891	3	-0.346373	12	-0.000139899
2	0	0	1	0	6021.99	0.591482	0.59099	-0.246833	3	-0.351709	12	-0.000145876
2	0	0	1	0	6044.59	0.557582	0.557141	-0.267766	3	-0.357538	12	-0.000149183
2	0	0	1	0	6067.19	0.523682	0.523187	-0.289677	3	-0.363854	12	-0.000151555
2	0	0	1	0	6089.79	0.489782	0.489354	-0.30832	3	-0.37063	12	-0.000150877
2	0	0	1	0	6112.39	0.455882	0.455399	-0.325333	3	-0.377792	12	-0.000148156
2	0	0	1	0	6134.99	0.421982	0.421522	-0.33614	3	-0.385272	12	-0.000141691
2	0	0	1	0	6157.59	0.388083	0.387584	-0.355731	3	-0.393071	12	-0.000137876
2	0	0	1	0	6180.19	0.354183	0.353699	-0.385236	3	-0.401447	12	-0.000136258
2	0	0	1	0	6202.79	0.320283	0.319896	-0.416532	3	-0.410511	12	-0.000133247
2	0	0	1	0	6225.39	0.286383	0.285952	-0.448527	3	-0.420312	12	-0.000128257
2	0	0	1	0	6247.99	0.252483	0.25206	-0.479752	3	-0.430813	12	-0.000120926
2	0	0	1	0	6270.59	0.218583	0.218179	-0.511548	3	-0.442025	12	-0.000111609
2	0	0	1	0	6293.19	0.184684	0.184317	-0.542349	3	-0.453942	12	-9.9964e-05
2	0	0	1	0	6315.79	0.150784	0.150362	-0.572749	3	-0.466548	12	-8.61195e-05
2	0	0	1	0	6338.39	0.116884	0.116428	-0.60276	3	-0.47984	12	-7.0178e-05
2	0	0	1	0	6360.99	0.082984	0.0826076	-0.632245	3	-0.493806	12	-5.22282e-05
2	0	0	1	0	6383.59	0.0490841	0.0486664	-0.661704	3	-0.508439	12	-3.22027e-05
2	0	0	1	0	6406.19	0.0151844	0.0147825	-0.690962	3	-0.523733	12	-1.02141e-05
2	0	0	1	0	6425.09	0.0333669	0.0329119	-0.579475	3	-0.535909	12	-1.90716e-05
2	0	0	1	0	6447.69	0.0672668	0.0668701	-0.449537	3	-0.54746	12	-3.00606e-05
2	0	0	1	0	6470.29	0.101167	0.100696	-0.340984	3	-0.55635	12	-3.43356e-05
2	0	0	1	0	6492.89	0.135066	0.134672	-0.246536	3	-0.562954	12	-3.32015e-05
2	0	0	1	0	6515.49	0.168966	0.168608	-0.162787	3	-0.567549	12	-2.74472e-05
2	0	0	1	0	6538.09	0.202866	0.202491	-0.0878011	3	-0.570359	12	-1.77789e-05
2	0	0	1	0	6560.69	0.236766	0.236351	-0.0205395	3	-0.571564	13	-4.85453e-06
2	1	0	1	0	6583.29	0.270666	0.270197	0.0415481	3	-0.571309	13	1.12262e-05
2	1	0	1	0	6605.89	0.304566	0.304115	0.0994905	3	-0.569699	13	3.02565e-05
2	1	0	1	0	6628.49	0.338466	0.337988	0.153927	3	-0.566822	12	5.20255e-05
2	1	0	1	0	6651.09	0.372365	0.371971	0.212471	3	-0.562697	12	7.9033e-05
2	1	0	1	0	6673.69	0.406265	0.405803	0.291154	3	-0.557033	12	0.000118151
2	1	0	1	0	6696.29	0.440165	0.439748	0.376941	3	-0.549463	12	0.000165759
2	1	0	1	0	6718.89	0.474065	0.473633	0.4556	3	-0.540047	12	0.000215787
2	1	0	1	0	6741.49	0.507965	0.507535	0.52171	3	-0.528955	12	0.000264786
2	1	0	1	0	6764.09	0.541865	0.54138	0.566632	3	-0.516608	12	0.000306763
2	1	0	1	0	6786.69	0.575765	0.57527	0.59133	3	-0.503488	12	0.000340175
2	1	0	1	0	6809.29	0.609664	0.609247	0.595145	3	-0.490067	12	0.000362591
2	1	0	1	0	6831.89	0.643564	0.643083	0.598479	3	-0.476543	12	0.000384872
2	1	0	1	0	6854.49	0.677464	0.677059	0.594898	3	-0.463034	12	0.000402781
2	1	0	1	0	6877.09	0.711364	0.710917	0.585376	3	-0.449685	12	0.000416154
2	1	0	1	0	6899.69	0.745264	0.744792	0.567294	3	-0.436637	12	0.000422516
2	1	0	1	0	6922.29	0.779164	0.778645	0.545319	3	-0.424049	12	0.00042461
2	1	0	1	0	6944.89	0.813063	0.812547	0.516721	3	-0.412015	12	0.00041986
2	1	0	1	0	6967.49	0.846963	0.846538	0.489709	3	-0.40062	12	0.000414557
2	1	0	1	0	6990.09	0.880863	0.880376	0.458367	3	-0.389913	12	0.000403535
2	1	0	1	0	7012.69	0.914763	0.914351	0.428359	3	-0.379865	12	0.000391671
2	1	0	1	0	7035.29	0.948663	0.948157	0.389952	3	-0.370592	12	0.000369736
2	1	0	1	0	7057.89	0.982563	0.982042	0.359992	3	-0.362095	12	0.000353527
2	1	0	1	1	7076.79	0.989034	0.988561	0.25027	4	-0.355874	12	0.000247407
2	1	0	1	1	7099.39	0.955135	0.954666	0.109115	4	-0.352067	12	0.000104168
2	1	0	1	1	7121.99	0.921235	0.920732	0.035496	4	-0.35051	13	3.26823e-05
2	0	0	1	1	7144.59	0.887335	0.886853	-0.0143604	4	-0.350316	13	-1.27355e-05
2	0	0	1	1	7167.19	0.853435	0.852998	-0.0494218	4	-0.35107	13	-4.21567e-05
2	0	0	1	1	7189.79	0.819535	0.819008	-0.0738162	4	-0.352482	13	-6.04561e-05
2	0	0	1	1	7212.39	0.785635	0.785146	-0.0954239	4	-0.354397	13	-7.49217e-05
2	0	0	1	1	7234.99	0.751736	0.751235	-0.112679	4	-0.356749	12	-8.46486e-05
2	0	0	1	1	7257.59	0.717836	0.717415	-0.131376	4	-0.359514	12	-9.42509e-05
2	0	0	1	1	7280.19	0.683936	0.683449	-0.150449	4	-0.362705	12	-0.000102824
2	0	0	1	1	7302.79	0.650036	0.649517	-0.170452	4	-0.366337	12	-0.000110711
2	0	0	1	1	7325.39	0.616136	0.615648	-0.191256	4	-0.370429	12	-0.000117746
2	0	0	1	1	7347.99	0.582236	0.581649	-0.21282	4	-0.374999	12	-0.000123787
2	0	0	1	1	7370.59	0.548336	0.547861	-0.234827	4	-0.380061	12	-0.000128652
2	0	0	1	1	7393.19	0.514437	0.51402	-0.257491	4	-0.385629	12	-0.000132355
2	0	0	1	1	7415.79	0.480537	0.48014	-0.280434	4	-0.391716	12	-0.000134648
2	0	0	1	1	7438.39	0.446637	0.446184	-0.304202	4	-0.39833	12	-0.00013573
2	0	0	1	1	7460.99	0.412737	0.412282	-0.328235	4	-0.405483	12	-0.000135325
2	0	0	1	1	7483.59	0.378837	0.378372	-0.352982	4	-0.413187	12	-0.000133559
2	0	0	1	1	7506.19	0.344937	0.344438	-0.378106	4	-0.421453	12	-0.000130234
2	0	0	1	1	7528.79	0.311038	0.310646	-0.403195	4	-0.430287	12	-0.000125251
2	0	0	1	1	7551.39	0.277138	0.276739	-0.428041	4	-0.439687	12	-0.000118456
2	0	0	1	1	7573.99	0.243238	0.242829	-0.452754	4	-0.449649	12	-0.000109942
2	0	0	1	1	7596.59	0.209338	0.208919	-0.477222	4	-0.460167	12	-9.97006e-05
2	0	0	1	1	7619.19	0.175438	0.175081	-0.501019	4	-0.47123	12	-8.77188e-05
2	0	0	1	1	7641.79	0.141538	0.141107	-0.524691	4	-0.482828	12	-7.40373e-05
2	0	0	1	1	7664.39	0.107638	0.107187	-0.549424	4	-0.49498	12	-5.88909e-05
2	0	0	1	1	7686.99	0.0737386	0.0732761	-0.572212	4	-0.50766	12	-4.19295e-05
2	0	0	1	1	7709.59	0.0398387	0.0394302	-0.59565	4	-0.520862	12	-2.34866e-05
2	0	0	1	1	7729.42	0.0100993	0.0096335	-0.617079	4	-0.532887	12	-5.94463e-06
2	0	0	1	1	7751.09	0.0426124	0.0421883	-0.482319	4	-0.544712	12	-2.03482e-05
2	0	0	1	1	7773.69	0.0765122	0.0761136	-0.375381	4	-0.554347	12	-2.85716e-05
2	0	0	1	1	7796.29	0.110412	0.109936	-0.287595	4	-0.561802	12	-3.1617e-05
2	0	0	1	1	7818.89	0.144312	0.143887	-0.211263	4	-0.56741	12	-3.03979e-05
2	0	0	1	1	7841.49	0.178212	0.177771	-0.143632	4	-0.571398	12	-2.55335e-05
2	0	0	1	1	7864.09	0.212112	0.211705	-0.0827753	4	-0.573938	12	-1.7524e-05
2	0	0	1	1	7886.69	0.246011	0.245625	-0.0279473	4	-0.575173	13	-6.86456e-06
2	1	0	1	1	7909.29	0.279911	0.279557	0.0224957	4	-0.575223	13	6.28883e-06
2	1	0	1	1	7931.89	0.313811	0.313329	0.069868	4	-0.574169	13	2.18917e-05
2	1	0	1	1	7954.49	0.347711	0.34726	0.118351	4	-0.572046	12	4.10986e-05
2	1	0	1	1	7977.09	0.381611	0.381154	0.177695	4	-0.568728	12	6.77291e-05
2	1	0	1	1	7999.69	0.415511	0.415015	0.260327	4	-0.56377	12	0.00010804
2	1	0	1	1	8022.29	0.449411	0.448996	0.336669	4	-0.556998	12	0.000151163
2	1	0	1	1	8044.89	0.48331	0.482885	0.41398	4	-0.548504	12	0.000199905
2	1	0	1	1	8067.49	0.51721	0.5168	0.478538	4	-0.538407	12	0.000247308
2	1	0	1	1	8090.09	0.55111	0.550688	0.534394	4	-0.526914	12	0.000294284
2	1	0	1	1	8112.69	0.58501	0.5845	0.57007	4	-0.514377	12	0.000333206
2	1	0	1	1	8135.29	0.61891	0.618454	0.585788	4	-0.501302	12	0.000362283
2	1	0	1	1	8157.89	0.65281	0.652305	0.586787	4	-0.488	12	0.000382764
2	1	0	1	1	8180.49	0.68671	0.686314	0.579755	4	-0.474775	12	0.000397894
2	1	0	1	1	8203.09	0.720609	0.720073	0.568404	4	-0.461775	12	0.000409292
2	1	0	1	1	8225.69	0.754509	0.754069	0.553833	4	-0.449087	12	0.000417628
2	1	0	1	1	8248.29	0.788409	0.787922	0.524679	4	-0.436945	12	0.000413406
2	1	0	1	1	8270.89	0.822309	0.821796	0.501743	4	-0.425312	12	0.00041233
2	1	0	1	1	8293.49	0.856209	0.855753	0.470962	4	-0.414239	12	0.000403027
2	1	0	1	1	8316.09	0.890109	0.889626	0.433322	4	-0.404029	12	0.000385495
2	1	0	1	1	8338.69	0.924008	0.923564	0.405519	4	-0.39452	12	0.000374523
2	1	0	1	1	8361.29	0.957908	0.957431	0.380604	4	-0.385628	12	0.000364402
2	1	0	1	1	8383.89	0.991808	0.991395	0.3516	4	-0.377345	12	0.000348574
2	1	0	1	0	8402.79	0.979789	0.979251	0.204653	5	-0.371892	12	0.000200406
2	1	0	1	0	8425.39	0.945889	0.945373	0.0945917	5	-0.368683	12	8.94245e-05
2	1	0	1	0	8447.99	0.911989	0.91154	0.0320234	5	-0.367314	13	2.91906e-05
2	0	0	1	0	8470.59	0.87809	0.877619	-0.00803947	5	-0.367092	14	-7.05559e-06
2	0	0	1	0	8493.19	0.84419	0.84374	-0.0368653	5	-0.367637	13	-3.11047e-05
2	0	0	1	0	8515.79	0.81029	0.809773	-0.058672	5	-0.368729	13	-4.7511e-05
2	0	0	1	0	8538.39	0.77639	0.775956	-0.0764814	5	-0.370263	13	-5.93462e-05
2	0	0	1	0	8560.99	0.74249	0.741988	-0.094757	5	-0.372202	13	-7.03086e-05
2	0	0	1	0	8583.59	0.70859	0.708157	-0.112015	5	-0.374543	12	-7.93239e-05
2	0	0	1	0	8606.19	0.67469	0.674217	-0.12879	5	-0.377269	12	-8.68326e-05
2	0	0	1	0	8628.79	0.640791	0.640267	-0.145692	5	-0.380376	12	-9.32816e-05
2	0	0	1	0	8651.39	0.606891	0.606413	-0.163011	5	-0.383868	12	-9.88518e-05
2	0	0	1	0	8673.99	0.572991	0.572494	-0.181055	5	-0.38776	12	-0.000103653
2	0	0	1	0	8696.59	0.539091	0.538578	-0.199378	5	-0.392062	12	-0.00010738
2	0	0	1	0	8719.19	0.505191	0.504738	-0.218255	5	-0.396784	12	-0.000110162
2	0	0	1	0	8741.79	0.471291	0.470758	-0.237352	5	-0.401934	12	-0.000111735
2	0	0	1	0	8764.39	0.437391	0.436948	-0.257153	5	-0.407523	12	-0.000112362
2	0	0	1	0	8786.99	0.403492	0.403054	-0.276903	5	-0.413563	12	-0.000111607
2	0	0	1	0	8809.59	0.369592	0.36916	-0.297011	5	-0.420053	12	-0.000109644
2	0	0	1	0	8832.19	0.335692	0.335187	-0.317564	5	-0.427002	12	-0.000106443
2	0	0	1	0	8854.79	0.301792	0.301373	-0.338229	5	-0.434416	12	-0.000101933
2	0	0	1	0	8877.39	0.267892	0.267434	-0.359292	5	-0.442302	12	-9.60868e-05
2	0	0	1	0	8899.99	0.233992	0.233582	-0.380418	5	-0.450664	12	-8.88587e-05
2	0	0	1	0	8922.59	0.200093	0.199706	-0.402054	5	-0.459509	12	-8.02928e-05
2	0	0	1	0	8945.19	0.166193	0.165869	-0.424347	5	-0.468849	12	-7.03861e-05
2	0	0	1	0	8967.79	0.132293	0.131874	-0.449436	5	-0.478724	12	-5.92687e-05
2	0	0	1	0	8990.39	0.0983929	0.0979101	-0.477295	5	-0.489197	12	-4.67319e-05
2	0	0	1	0	9012.99	0.0644931	0.0640654	-0.507461	5	-0.50032	12	-3.25107e-05
2	0	0	1	0	9035.59	0.0305933	0.0301698	-0.539764	5	-0.512155	12	-1.62846e-05
2	0	0	1	0	9054.49	0.017958	0.01755	-0.528211	5	-0.52251	12	-9.27011e-06
2	0	0	1	0	9077.09	0.0518578	0.0514562	-0.405708	5	-0.532996	12	-2.08762e-05
2	0	0	1	0	9099.69	0.0857576	0.0853889	-0.316089	5	-0.541091	12	-2.69905e-05
2	0	0	1	0	9122.29	0.119657	0.119249	-0.247955	5	-0.547434	12	-2.95685e-05
2	0	0	1	0	9144.89	0.153557	0.153133	-0.189645	5	-0.552359	12	-2.9041e-05
2	0	0	1	0	9167.49	0.187457	0.187033	-0.137669	5	-0.55604	12	-2.57486e-05
2	0	0	1	0	9190.09	0.221357	0.220992	-0.0907102	5	-0.558606	12	-2.00463e-05
2	0	0	1	0	9212.69	0.255257	0.254801	-0.0478952	5	-0.56016	12	-1.22037e-05
2	0	0	1	0	9235.29	0.289157	0.28872	-0.00882615	5	-0.560791	13	-2.54829e-06
2	1	0	1	0	9257.89	0.323057	0.322684	0.0276028	5	-0.56057	13	8.90698e-06
2	1	0	1	0	9280.49	0.356956	0.356541	0.063735	5	-0.559542	13	2.27241e-05
2	1	0	1	0	9303.09	0.390856	0.390407	0.105509	5	-0.55764	13	4.11913e-05
2	1	0	1	0	9325.69	0.424756	0.424276	0.168696	5	-0.554593	12	7.15738e-05
2	1	0	1	0	9348.29	0.458656	0.458193	0.239635	5	-0.549973	12	0.000109799
2	1	0	1	0	9370.89	0.492556	0.492106	0.310426	5	-0.543752	12	0.000152763
2	1	0	1	0	9393.49	0.526456	0.526013	0.382938	5	-0.535926	12	0.00020143
2	1	0	1	0	9416.09	0.560355	0.559935	0.448474	5	-0.52648	12	0.000251116
2	1	0	1	0	9438.69	0.594255	0.593798	0.494717	5	-0.515752	12	0.000293762
2	1	0	1	0	9461.29	0.628155	0.627677	0.525602	5	-0.504163	12	0.000329909
2	1	0	1	0	9483.89	0.662055	0.661502	0.541154	5	-0.492094	12	0.000357974
2	1	0	1	0	9506.49	0.695955	0.695472	0.542449	5	-0.479819	12	0.000377258
2	1	0	1	0	9529.09	0.729855	0.72933	0.536286	5	-0.467574	12	0.000391129
2	1	0	1	0	9551.69	0.763755	0.763281	0.522274	5	-0.455552	12	0.000398642
2	1	0	1	0	9574.29	0.797654	0.797184	0.50474	5	-0.443923	12	0.00040237
2	1	0	1	0	9596.89	0.831554	0.831101	0.481168	5	-0.432818	12	0.000399899
2	1	0	1	0	9619.49	0.865454	0.864964	0.459202	5	-0.422182	12	0.000397193
2	1	0	1	0	9642.09	0.899354	0.89882	0.434162	5	-0.412067	12	0.000390233
2	1	0	1	0	9664.69	0.933254	0.932791	0.408834	5	-0.402534	12	0.000381357
2	1	0	1	0	9687.29	0.967154	0.966632	0.380848	5	-0.393587	12	0.00036814
2	1	0	1	0	9708.96	0.999667	0.999185	0.350342	5	-0.385669	12	0.000350056
2	1	0	1	1	9728.79	0.970544	0.969986	0.183297	6	-0.380626	12	0.000177796
2	1	0	1	1	9751.39	0.936644	0.936125	0.0898029	6	-0.377648	12	8.40667e-05
2	1	0	1	1	9773.99	0.902744	0.902234	0.0317115	6	-0.376333	13	2.86112e-05
2	0	0	1	1	9796.59	0.868844	0.868341	-0.00643911	6	-0.376083	14	-5.59134e-06
2	0	0	1	1	9819.19	0.834944	0.834505	-0.0316594	6	-0.376556	13	-2.64199e-05
2	0	0	1	1	9841.79	0.801044	0.800557	-0.0498846	6	-0.377502	13	-3.99354e-05
2	0	0	1	1	9864.39	0.767144	0.766698	-0.0637683	6	-0.378794	13	-4.8891e-05
2	0	0	1	1	9886.99	0.733245	0.73275	-0.0777104	6	-0.380383	13	-5.69423e-05
2	0	0	1	1	9909.59	0.699345	0.69883	-0.0934214	6	-0.382321	13	-6.52857e-05
2	0	0	1	1	9932.19	0.665445	0.664955	-0.108321	6	-0.384605	13	-7.20283e-05
2	0	0	1	1	9954.79	0.631545	0.631011	-0.123119	6	-0.387224	12	-7.76897e-05
2	0	0	1	1	9977.39	0.597645	0.597192	-0.137936	6	-0.390177	12	-8.23744e-05
2	0	0	1	1	9999.99	0.563746	0.563261	-0.153079	6	-0.393469	12	-8.62234e-05
2	0	0	1	1	10022.6	0.529846	0.529423	-0.16839	6	-0.397105	12	-8.91494e-05
2	0	0	1	1	10045.2	0.495946	0.495493	-0.184154	6	-0.401092	12	-9.1247e-05
2	0	0	1	1	10067.8	0.462046	0.461567	-0.200121	6	-0.405437	12	-9.23693e-05
2	0	0	1	1	10090.4	0.428146	0.427701	-0.216405	6	-0.410146	12	-9.25566e-05
2	0	0	1	1	10113	0.394246	0.393752	-0.232932	6	-0.415226	12	-9.17175e-05
2	0	0	1	1	10135.6	0.360346	0.359935	-0.24975	6	-0.420683	12	-8.98938e-05
2	0	0	1	1	10158.2	0.326447	0.325956	-0.267124	6	-0.426528	12	-8.70706e-05
2	0	0	1	1	10180.8	0.292547	0.292137	-0.285063	6	-0.432769	12	-8.32773e-05
2	0	0	1	1	10203.4	0.258647	0.258134	-0.304997	6	-0.439436	12	-7.87301e-05
2	0	0	1	1	10226	0.224747	0.224306	-0.327719	6	-0.446583	12	-7.35094e-05
2	0	0	1	1	10248.6	0.190847	0.190362	-0.354038	6	-0.454285	12	-6.73953e-05
2	0	0	1	1	10271.2	0.156947	0.156529	-0.382685	6	-0.462609	12	-5.99012e-05
2	0	0	1	1	10293.8	0.123047	0.122634	-0.413855	6	-0.471609	12	-5.07528e-05
2	0	0	1	1	10316.4	0.0891476	0.088743	-0.44691	6	-0.481339	12	-3.96602e-05
2	0	0	1	1	10339	0.0552478	0.054893	-0.480484	6	-0.491826	12	-2.63752e-05
2	0	0	1	1	10361.6	0.0213479	0.0208945	-0.515919	6	-0.503089	12	-1.07799e-05
2	0	0	1	1	10380.5	0.0272034	0.0267882	-0.46504	6	-0.512659	12	-1.24576e-05
2	0	0	1	1	10403.1	0.0611032	0.0607124	-0.351756	6	-0.521814	12	-2.1356e-05
2	0	0	1	1	10425.7	0.0950031	0.0945953	-0.274167	6	-0.528822	12	-2.59349e-05
2	0	0	1	1	10448.3	0.128903	0.12847	-0.218086	6	-0.534356	12	-2.80174e-05
2	0	0	1	1	10470.9	0.162803	0.162454	-0.170577	6	-0.538733	12	-2.77109e-05
2	0	0	1	1	10493.5	0.196703	0.196266	-0.128528	6	-0.5421	12	-2.52257e-05
2	0	0	1	1	10516.1	0.230602	0.230165	-0.090597	6	-0.544564	12	-2.08523e-05
2	0	0	1	1	10538.7	0.264502	0.26406	-0.0559924	6	-0.54621	12	-1.47854e-05
2	0	0	1	1	10561.3	0.298402	0.297952	-0.0242063	6	-0.547107	13	-7.2123e-06
2	1	0	1	1	10583.9	0.332302	0.33193	0.00524844	6	-0.547314	14	1.74212e-06
2	1	0	1	1	10606.5	0.366202	0.365735	0.0331146	6	-0.546876	13	1.21111e-05
2	1	0	1	1	10629.1	0.400102	0.399719	0.065371	6	-0.545775	13	2.613e-05
2	1	0	1	1	10651.7	0.434002	0.433551	0.110906	6	-0.543813	13	4.80833e-05
2	1	0	1	1	10674.3	0.467901	0.46739	0.171597	6	-0.54062	12	8.02025e-05
2	1	0	1	1	10696.9	0.501801	0.501369	0.239907	6	-0.535969	12	0.000120282
2	1	0	1	1	10719.5	0.535701	0.535217	0.324272	6	-0.52963	12	0.000173556
2	1	0	1	1	10742.1	0.569601	0.569178	0.401519	6	-0.521381	12	0.000228536
2	1	0	1	1	10764.7	0.603501	0.603027	0.456893	6	-0.511652	12	0.000275519
2	1	0	1	1	10787.3	0.637401	0.636996	0.486616	6	-0.500936	12	0.000309972
2	1	0	1	1	10809.9	0.6713	0.670846	0.503673	6	-0.489686	12	0.000337887
2	1	0	1	1	10832.5	0.7052	0.704726	0.505084	6	-0.478244	12	0.000355946
2	1	0	1	1	10855.1	0.7391	0.738612	0.499747	6	-0.466902	12	0.000369119
2	1	0	1	1	10877.7	0.773	0.772526	0.488009	6	-0.455728	12	0.000377
2	1	0	1	1	10900.3	0.8069	0.806469	0.469747	6	-0.444866	12	0.000378837
2	1	0	1	1	10922.9	0.8408	0.840356	0.445522	6	-0.434554	12	0.000374397
2	1	0	1	1	10945.5	0.8747	0.874234	0.430147	6	-0.424643	12	0.000376049
2	1	0	1	1	10968.1	0.908599	0.90812	0.410727	6	-0.415148	12	0.000372989
2	1	0	1	1	10990.7	0.942499	0.941964	0.389583	6	-0.406104	12	0.000366974
2	1	0	1	1	11013.3	0.976399	0.975851	0.362993	6	-0.3976	12	0.000354227
2	1	0	1	0	11032.2	0.995198	0.994693	0.309336	7	-0.390973	12	0.000307695
2	1	0	1	0	11054.8	0.961298	0.960808	0.156516	7	-0.385957	12	0.000150382
2	1	0	1	0	11077.4	0.927398	0.926846	0.0762325	7	-0.383415	12	7.06558e-05
2	1	0	1	0	11100	0.893498	0.892999	0.0259958	7	-0.382304	13	2.32143e-05
2	0	0	1	0	11122.6	0.859599	0.859057	-0.00870709	7	-0.382137	14	-7.47989e-06
2	0	0	1	0	11145.2	0.825699	0.825261	-0.0289757	7	-0.382599	13	-2.39125e-05
2	0	0	1	0	11167.8	0.791799	0.791339	-0.0418133	7	-0.383409	13	-3.30885e-05
2	0	0	1	0	11190.4	0.757899	0.757438	-0.0535223	7	-0.384483	13	-4.05399e-05
2	0	0	1	0	11213	0.723999	0.723479	-0.0677263	7	-0.385853	13	-4.89986e-05
2	0	0	1	0	11235.6	0.690099	0.68963	-0.0819975	7	-0.387549	13	-5.65479e-05
2	0	0	1	0	11258.2	0.6562	0.655735	-0.0957705	7	-0.389561	13	-6.28001e-05
2	0	0	1	0	11280.8	0.6223	0.621797	-0.109125	7	-0.391879	13	-6.78535e-05
2	0	0	1	0	11303.4	0.5884	0.587851	-0.122533	7	-0.394499	12	-7.20312e-05
2	0	0	1	0	11326	0.5545	0.554041	-0.136055	7	-0.397423	12	-7.53799e-05
2	0	0	1	0	11348.6	0.5206	0.520149	-0.149727	7	-0.400655	12	-7.78805e-05
2	0	0	1	0	11371.2	0.4867	0.486284	-0.163791	7	-0.404201	12	-7.96488e-05
2	0	0	1	0	11393.8	0.452801	0.452306	-0.178105	7	-0.408067	12	-8.05578e-05
2	0	0	1	0	11416.4	0.418901	0.418394	-0.192713	7	-0.41226	12	-8.063e-05
2	0	0	1	0	11439	0.385001	0.384473	-0.207633	7	-0.416785	12	-7.98294e-05
2	0	0	1	0	11461.6	0.351101	0.350647	-0.223165	7	-0.421654	12	-7.8252e-05
2	0	0	1	0	11484.2	0.317201	0.316743	-0.240387	7	-0.42689	12	-7.61411e-05
2	0	0	1	0	11506.8	0.283301	0.282907	-0.26105	7	-0.432552	12	-7.38528e-05
2	0	0	1	0	11529.4	0.249401	0.248985	-0.285695	7	-0.438729	12	-7.11337e-05
2	0	0	1	0	11552	0.215502	0.215089	-0.312476	7	-0.44549	12	-6.72102e-05
2	0	0	1	0	11574.6	0.181602	0.181121	-0.340602	7	-0.452872	12	-6.16899e-05
2	0	0	1	0	11597.2	0.147702	0.147213	-0.370395	7	-0.460905	12	-5.4527e-05
2	0	0	1	0	11619.8	0.113802	0.113351	-0.402269	7	-0.469635	12	-4.55975e-05
2	0	0	1	0	11642.4	0.0799023	0.0794455	-0.437142	7	-0.479122	12	-3.47289e-05
2	0	0	1	0	11665	0.0460024	0.0456167	-0.472856	7	-0.489409	12	-2.15701e-05
2	0	0	1	0	11687.6	0.0121024	0.011669	-0.509387	7	-0.500516	12	-5.94405e-06
2	0	0	1	0	11706.5	0.0364488	0.0360338	-0.417852	7	-0.509368	12	-1.50568e-05
2	0	0	1	0	11729.1	0.0703485	0.0699102	-0.313162	7	-0.517543	12	-2.18932e-05
2	0	0	1	0	11751.7	0.104248	0.103789	-0.244951	7	-0.52379	12	-2.54232e-05
2	0	0	1	0	11774.3	0.138148	0.137685	-0.195798	7	-0.528745	12	-2.69584e-05
2	0	0	1	0	11796.9	0.172048	0.171622	-0.154114	7	-0.532684	12	-2.64494e-05
2	0	0	1	0	11819.5	0.205948	0.205541	-0.117344	7	-0.53574	12	-2.4119e-05
2	0	0	1	0	11842.1	0.239848	0.239417	-0.0843858	7	-0.53801	12	-2.02034e-05
2	0	0	1	0	11864.7	0.273748	0.273258	-0.054414	7	-0.53957	12	-1.48691e-05
2	0	0	1	0	11887.3	0.307647	0.307221	-0.0269511	7	-0.540481	13	-8.27995e-06
2	0	0	1	0	11909.9	0.341547	0.341099	-0.00154668	7	-0.540796	14	-5.27572e-07
2	1	0	1	0	11932.5	0.375447	0.375046	0.0222709	7	-0.540556	13	8.35259e-06
2	1	0	1	0	11955.1	0.409347	0.408898	0.0484556	7	-0.539771	13	1.98134e-05
2	1	0	1	0	11977.7	0.443247	0.442839	0.0834092	7	-0.538289	13	3.69369e-05
2	1	0	1	0	12000.3	0.477147	0.476712	0.138596	7	-0.535813	12	6.60701e-05
2	1	0	1	0	12022.9	0.511047	0.510622	0.205681	7	-0.531929	12	0.000105025
2	1	0	1	0	12045.5	0.544946	0.544457	0.290454	7	-0.526332	12	0.00015814
2	1	0	1	0	12068.1	0.578846	0.578367	0.382709	7	-0.518701	12	0.000221346
2	1	0	1	0	12090.7	0.612746	0.612246	0.438116	7	-0.509348	12	0.000268235
2	1	0	1	0	12113.3	0.646646	0.646199	0.470571	7	-0.499037	12	0.000304083
2	1	0	1	0	12135.9	0.680546	0.680085	0.488252	7	-0.488171	12	0.000332053
2	1	0	1	0	12158.5	0.714446	0.71398	0.485287	7	-0.477159	12	0.000346485
2	1	0	1	0	12181.1	0.748345	0.747853	0.480057	7	-0.466223	12	0.000359012
2	1	0	1	0	12203.7	0.782245	0.78171	0.471402	7	-0.455448	12	0.0003685
2	1	0	1	0	12226.3	0.816145	0.81569	0.45647	7	-0.44493	12	0.000372338
2	1	0	1	0	12248.9	0.850045	0.849548	0.43495	7	-0.434876	12	0.000369511
2	1	0	1	0	12271.5	0.883945	0.883519	0.416027	7	-0.425277	12	0.000367568
2	1	0	1	0	12294.1	0.917845	0.91738	0.392841	7	-0.416134	12	0.000360384
2	1	0	1	0	12316.7	0.951745	0.951285	0.371731	7	-0.40749	12	0.000353622
2	1	0	1	0	12339.3	0.985644	0.985126	0.347541	7	-0.399364	12	0.000342371
2	1	0	1	1	12358.2	0.985953	0.985453	0.25031	8	-0.393382	12	0.000246669
2	1	0	1	1	12380.8	0.952053	0.951534	0.129231	8	-0.389256	12	0.000122967
2	1	0	1	1	12403.4	0.918153	0.917647	0.0592257	8	-0.387193	12	5.43483e-05
2	1	0	1	1	12426	0.884253	0.883852	0.0156112	8	-0.386391	13	1.3798e-05
2	0	0	1	1	12448.6	0.850353	0.84985	-0.013288	8	-0.386386	13	-1.12928e-05
2	0	0	1	1	12471.2	0.816454	0.816022	-0.0303515	8	-0.386908	13	-2.47675e-05
2	0	0	1	1	12493.8	0.782553	0.782057	-0.0379794	8	-0.387663	13	-2.97021e-05
2	0	0	1	1	12516.4	0.748654	0.748145	-0.0503075	8	-0.388653	13	-3.76373e-05
2	0	0	1	1	12539	0.714754	0.714253	-0.0638646	8	-0.389946	13	-4.56155e-05
2	0	0	1	1	12561.6	0.680854	0.680428	-0.0770159	8	-0.391542	13	-5.24038e-05
2	0	0	1	1	12584.2	0.646954	0.6465	-0.0898261	8	-0.39343	13	-5.80726e-05
2	0	0	1	1	12606.8	0.613054	0.612574	-0.102545	8	-0.395607	13	-6.28167e-05
2	0	0	1	1	12629.4	0.579154	0.578696	-0.115167	8	-0.398069	12	-6.6647e-05
2	0	0	1	1	12652	0.545255	0.544753	-0.127959	8	-0.400818	12	-6.97059e-05
2	0	0	1	1	12674.6	0.511355	0.510833	-0.140925	8	-0.403858	12	-7.19889e-05
2	0	0	1	1	12697.2	0.477455	0.476994	-0.154055	8	-0.407193	12	-7.34833e-05
2	0	0	1	1	12719.8	0.443555	0.44309	-0.167446	8	-0.410829	12	-7.41935e-05
2	0	0	1	1	12742.4	0.409655	0.40917	-0.181065	8	-0.41477	12	-7.40864e-05
2	0	0	1	1	12765	0.375755	0.37527	-0.195174	8	-0.419023	12	-7.3243e-05
2	0	0	1	1	12787.6	0.341856	0.341384	-0.210821	8	-0.423608	12	-7.19707e-05
2	0	0	1	1	12810.2	0.307956	0.307478	-0.230759	8	-0.42859	12	-7.09533e-05
2	0	0	1	1	12832.8	0.274056	0.273621	-0.255713	8	-0.434083	12	-6.99684e-05
2	0	0	1	1	12855.4	0.240156	0.239717	-0.282995	8	-0.440175	12	-6.78386e-05
2	0	0	1	1	12878	0.206256	0.205822	-0.311233	8	-0.446893	12	-6.40584e-05
2	0	0	1	1	12900.6	0.172356	0.171973	-0.340943	8	-0.454263	12	-5.86329e-05
2	0	0	1	1	12923.2	0.138457	0.138015	-0.372811	8	-0.462328	12	-5.14537e-05
2	0	0	1	1	12945.8	0.104557	0.104076	-0.407132	8	-0.471141	12	-4.23728e-05
2	0	0	1	1	12968.4	0.0706567	0.0701881	-0.442819	8	-0.480749	12	-3.10806e-05
2	0	0	1	1	12991	0.0367569	0.036336	-0.47751	8	-0.491156	12	-1.73508e-05
2	0	0	1	1	13009.9	0.0117942	0.0113932	-0.504648	8	-0.500475	12	-5.74957e-06
2	0	0	1	1	13032.5	0.0456941	0.0453472	-0.381917	8	-0.510501	12	-1.73188e-05
2	0	0	1	1	13055.1	0.0795941	0.0791665	-0.284349	8	-0.517939	12	-2.25109e-05
2	0	0	1	1	13077.7	0.113494	0.113084	-0.223102	8	-0.523619	12	-2.52293e-05
2	0	0	1	1	13100.3	0.147394	0.146969	-0.178177	8	-0.528131	12	-2.61865e-05
2	0	0	1	1	13122.9	0.181294	0.180882	-0.140016	8	-0.531712	12	-2.53264e-05
2	0	0	1	1	13145.5	0.215193	0.2148	-0.10639	8	-0.534485	12	-2.28526e-05
2	0	0	1	1	13168.1	0.249093	0.248671	-0.0768791	8	-0.536548	12	-1.91176e-05
2	0	0	1	1	13190.7	0.282993	0.282599	-0.0496041	8	-0.53797	12	-1.40181e-05
2	0	0	1	1	13213.3	0.316893	0.316476	-0.0247387	8	-0.538803	13	-7.82921e-06
2	0	0	1	1	13235.9	0.350793	0.350376	-0.00178347	8	-0.539097	14	-6.24885e-07
2	1	0	1	1	13258.5	0.384693	0.384253	0.0197513	8	-0.538888	13	7.5895e-06
2	1	0	1	1	13281.1	0.418592	0.418132	0.0420574	8	-0.538196	13	1.75855e-05
2	1	0	1	1	13303.7	0.452492	0.452072	0.0753154	8	-0.536891	13	3.4048e-05
2	1	0	1	1	13326.3	0.486392	0.485941	0.125974	8	-0.534657	12	6.1216e-05
2	1	0	1	1	13348.9	0.520292	0.519875	0.205783	8	-0.530919	12	0.000106981
2	1	0	1	1	13371.5	0.554192	0.553766	0.298426	8	-0.525261	12	0.000165258
2	1	0	1	1	13394.1	0.588092	0.587568	0.389184	8	-0.517407	12	0.000228672
2	1	0	1	1	13416.7	0.621992	0.621478	0.444004	8	-0.507906	12	0.000275939
2	1	0	1	1	13439.3	0.655891	0.655419	0.468253	8	-0.497534	12	0.000306902
2	1	0	1	1	13461.9	0.689791	0.689351	0.478658	8	-0.486804	12	0.000329963
2	1	0	1	1	13484.5	0.723691	0.723229	0.476781	8	-0.476039	12	0.000344822
2	1	0	1	1	13507.1	0.757591	0.757191	0.46903	8	-0.465339	12	0.000355145
2	1	0	1	1	13529.7	0.791491	0.791028	0.460492	8	-0.454853	12	0.000364262
2	1	0	1	1	13552.3	0.825391	0.824946	0.445	8	-0.444619	12	0.000367101
2	1	0	1	1	13574.9	0.859291	0.85883	0.423215	8	-0.434794	12	0.00036347
2	1	0	1	1	13597.5	0.89319	0.892685	0.406255	8	-0.425399	12	0.000362658
2	1	0	1	1	13620.1	0.92709	0.92663	0.380478	8	-0.416528	12	0.000352562
2	1	0	1	1	13642.7	0.96099	0.960565	0.361776	8	-0.408118	12	0.00034751
2	1	0	1	1	13665.3	0.99489	0.994427	0.337977	8	-0.400201	12	0.000336093
2	1	0	1	0	13684.2	0.976707	0.976205	0.199853	9	-0.395061	12	0.000195098
2	1	0	1	0	13706.8	0.942808	0.942287	0.0979557	9	-0.39182	12	9.23024e-05
2	1	0	1	0	13729.4	0.908908	0.908446	0.0389588	9	-0.390331	13	3.5392e-05
2	1	0	1	0	13752	0.875008	0.874556	0.00206476	9	-0.389912	14	1.80575e-06
2	0	0	1	0	13774.6	0.841108	0.840667	-0.0198516	9	-0.390147	13	-1.66886e-05
2	0	0	1	0	13797.2	0.807208	0.806812	-0.0293427	9	-0.390711	13	-2.36741e-05
2	0	0	1	0	13819.8	0.773308	0.772832	-0.0388773	9	-0.391472	13	-3.00456e-05
2	0	0	1	0	13842.4	0.739408	0.738915	-0.0518203	9	-0.392499	13	-3.82908e-05
2	0	0	1	0	13865	0.705509	0.705026	-0.0644178	9	-0.393815	13	-4.54162e-05
2	0	0	1	0	13887.6	0.671609	0.671194	-0.0770694	9	-0.395419	13	-5.17285e-05
2	0	0	1	0	13910.2	0.637709	0.637277	-0.0891206	9	-0.397301	13	-5.67945e-05
2	0	0	1	0	13932.8	0.603809	0.603422	-0.101097	9	-0.399453	13	-6.10039e-05
2	0	0	1	0	13955.4	0.569909	0.569521	-0.113043	9	-0.401875	12	-6.43804e-05
2	0	0	1	0	13978	0.536009	0.535579	-0.125199	9	-0.40457	12	-6.70539e-05
2	0	0	1	0	14000.6	0.502109	0.501684	-0.137555	9	-0.40754	12	-6.90093e-05
2	0	0	1	0	14023.2	0.46821	0.467763	-0.150211	9	-0.410793	12	-7.02633e-05
2	0	0	1	0	14045.8	0.43431	0.433893	-0.163122	9	-0.414335	12	-7.07773e-05
2	0	0	1	0	14068.4	0.40041	0.399981	-0.176488	9	-0.418175	12	-7.05917e-05
2	0	0	1	0	14091	0.36651	0.366093	-0.190883	9	-0.422326	12	-6.9881e-05
2	0	0	1	0	14113.6	0.33261	0.332207	-0.208761	9	-0.426837	12	-6.9352e-05
2	0	0	1	0	14136.2	0.29871	0.298274	-0.231972	9	-0.431811	12	-6.91914e-05
2	0	0	1	0	14158.8	0.26481	0.26437	-0.259265	9	-0.437359	12	-6.85419e-05
2	0	0	1	0	14181.4	0.230911	0.23049	-0.288427	9	-0.443548	12	-6.64793e-05
2	0	0	1	0	14204	0.197011	0.196646	-0.319256	9	-0.450415	12	-6.27805e-05
2	0	0	1	0	14226.6	0.163111	0.162798	-0.352127	9	-0.458007	12	-5.73255e-05
2	0	0	1	0	14249.2	0.129211	0.128801	-0.385142	9	-0.466343	12	-4.96065e-05
2	0	0	1	0	14271.8	0.0953112	0.0949432	-0.418771	9	-0.475433	12	-3.97594e-05
2	0	0	1	0	14294.4	0.0614114	0.0609733	-0.451737	9	-0.485275	12	-2.75439e-05
2	0	0	1	0	14317	0.0275115	0.0271573	-0.489942	9	-0.495925	12	-1.33055e-05
2	0	0	1	0	14335.9	0.0210397	0.0206611	-0.468659	9	-0.505273	12	-9.68303e-06
2	0	0	1	0	14358.5	0.0549395	0.0545694	-0.344755	9	-0.514417	12	-1.88131e-05
2	0	0	1	0	14381.1	0.0888394	0.0884565	-0.258447	9	-0.521144	12	-2.28614e-05
2	0	0	1	0	14403.7	0.122739	0.122379	-0.204208	9	-0.526331	12	-2.49907e-05
2	0	0	1	0	14426.3	0.156639	0.156263	-0.162633	9	-0.530458	12	-2.54135e-05
2	0	0	1	0	14448.9	0.190539	0.190083	-0.127082	9	-0.533718	12	-2.41562e-05
2	0	0	1	0	14471.5	0.224439	0.224009	-0.095824	9	-0.536226	12	-2.14655e-05
2	0	0	1	0	14494.1	0.258339	0.257878	-0.0680644	9	-0.538068	12	-1.75523e-05
2	0	0	1	0	14516.7	0.292238	0.291878	-0.0428949	9	-0.539314	13	-1.25201e-05
2	0	0	1	0	14539.3	0.326138	0.325688	-0.0200435	9	-0.540019	13	-6.5279e-06
2	1	0	1	0	14561.9	0.360038	0.359704	0.00112997	9	-0.540228	14	4.06456e-07
2	1	0	1	0	14584.5	0.393938	0.393539	0.0209767	9	-0.539974	13	8.25515e-06
2	1	0	1	0	14607.1	0.427838	0.427405	0.0420857	9	-0.53927	13	1.79877e-05
2	1	0	1	0	14629.7	0.461738	0.461326	0.0737594	9	-0.537986	13	3.40271e-05
2	1	0	1	0	14652.3	0.495638	0.495184	0.121751	9	-0.535811	12	6.02891e-05
2	1	0	1	0	14674.9	0.529537	0.529174	0.208536	9	-0.53214	12	0.000110352
2	1	0	1	0	14697.5	0.563437	0.563009	0.315775	9	-0.5262	12	0.000177784
2	1	0	1	0	14720.1	0.597337	0.596972	0.404627	9	-0.517992	12	0.000241551
2	1	0	1	0	14742.7	0.631237	0.630771	0.447855	9	-0.508245	12	0.000282494
2	1	0	1	0	14765.3	0.665137	0.664637	0.472126	9	-0.497805	12	0.000313792
2	1	0	1	0	14787.9	0.699037	0.698595	0.479519	9	-0.487011	12	0.00033499
2	1	0	1	0	14810.5	0.732936	0.732423	0.476543	9	-0.476189	12	0.000349031
2	1	0	1	0	14833.1	0.766836	0.7664	0.467934	9	-0.465498	12	0.000358625
2	1	0	1	0	14855.7	0.800736	0.800229	0.453425	9	-0.455085	12	0.000362844
2	1	0	1	0	14878.3	0.834636	0.834285	0.43549	9	-0.444998	12	0.000363323
2	1	0	1	0	14900.9	0.868536	0.868144	0.415639	9	-0.435389	12	0.000360835
2	1	0	1	0	14923.5	0.902436	0.901946	0.394969	9	-0.426199	12	0.00035624
2	1	0	1	0	14946.1	0.936336	0.935903	0.374914	9	-0.417499	12	0.000350883
2	1	0	1	0	14968.7	0.970236	0.969812	0.349716	9	-0.409309	12	0.000339159
2	1	0	0	1	14988.5	0.999975	0.99951	0.331077	9	-0.402552	12	0.000330915
2	1	0	1	1	15010.2	0.967462	0.966962	0.165361	10	-0.39748	12	0.000159898
2	1	0	1	1	15032.8	0.933562	0.933085	0.0784271	10	-0.394827	12	7.31791e-05
2	1	0	1	1	15055.4	0.899662	0.899194	0.0268822	10	-0.393684	13	2.41723e-05
2	0	0	1	1	15078	0.865762	0.865296	-0.00482477	10	-0.393482	14	-4.17485e-06
2	0	0	1	1	15100.6	0.831863	0.831435	-0.0220801	10	-0.393813	13	-1.83582e-05
2	0	0	1	1	15123.2	0.797962	0.797566	-0.0326422	10	-0.394453	13	-2.60343e-05
2	0	0	1	1	15145.8	0.764063	0.76362	-0.040199	10	-0.395263	13	-3.06968e-05
2	0	0	1	1	15168.4	0.730163	0.729719	-0.0525581	10	-0.396314	13	-3.83527e-05
2	0	0	1	1	15191	0.696263	0.695815	-0.0645327	10	-0.39764	13	-4.49029e-05
2	0	0	1	1	15213.6	0.662363	0.661854	-0.0763315	10	-0.399234	13	-5.05203e-05
2	0	0	1	1	15236.2	0.628463	0.627988	-0.0878876	10	-0.401092	13	-5.51923e-05
2	0	0	1	1	15258.8	0.594564	0.594126	-0.0997865	10	-0.403212	13	-5.92858e-05
2	0	0	1	1	15281.4	0.560664	0.560226	-0.111326	10	-0.405601	12	-6.2368e-05
2	0	0	1	1	15304	0.526764	0.526379	-0.123014	10	-0.408251	12	-6.47521e-05
2	0	0	1	1	15326.6	0.492864	0.492449	-0.134984	10	-0.411168	12	-6.64727e-05
2	0	0	1	1	15349.2	0.458964	0.458505	-0.147204	10	-0.414359	12	-6.74937e-05
2	0	0	1	1	15371.8	0.425064	0.424561	-0.159767	10	-0.417829	12	-6.7831e-05
2	0	0	1	1	15394.4	0.391164	0.390739	-0.172701	10	-0.421587	12	-6.74809e-05
2	0	0	1	1	15417	0.357265	0.356828	-0.187234	10	-0.425651	12	-6.68103e-05
2	0	0	1	1	15439.6	0.323365	0.322973	-0.207074	10	-0.430096	12	-6.68794e-05
2	0	0	1	1	15462.2	0.289465	0.289032	-0.233648	10	-0.435069	12	-6.75318e-05
2	0	0	1	1	15484.8	0.255565	0.255165	-0.265252	10	-0.440702	12	-6.76829e-05
2	0	0	1	1	15507.4	0.221665	0.2213	-0.297794	10	-0.447066	12	-6.59017e-05
2	0	0	1	1	15530	0.187765	0.18732	-0.330669	10	-0.454173	12	-6.19409e-05
2	0	0	1	1	15552.6	0.153865	0.15345	-0.363528	10	-0.462021	12	-5.57832e-05
2	0	0	1	1	15575.2	0.119966	0.119572	-0.395406	10	-0.470605	12	-4.72795e-05
2	0	0	1	1	15597.8	0.0860658	0.0857124	-0.426625	10	-0.479901	12	-3.65671e-05
2	0	0	1	1	15620.4	0.052166	0.0518349	-0.457553	10	-0.489898	12	-2.37172e-05
2	0	0	1	1	15643	0.0182661	0.0179382	-0.488609	10	-0.500596	12	-8.76479e-06
2	0	0	1	1	15661.9	0.0302851	0.0298728	-0.425996	10	-0.509471	12	-1.27257e-05
2	0	0	1	1	15684.5	0.0641849	0.0637928	-0.31158	10	-0.517747	12	-1.98765e-05
2	0	0	1	1	15707.1	0.0980848	0.0977085	-0.23622	10	-0.523857	12	-2.30807e-05
2	0	0	1	1	15729.7	0.131985	0.131575	-0.187442	10	-0.528611	12	-2.46628e-05
2	0	0	1	1	15752.3	0.165885	0.165557	-0.148649	10	-0.532393	12	-2.46099e-05
2	0	0	1	1	15774.9	0.199784	0.199437	-0.115397	10	-0.535365	12	-2.30144e-05
2	0	0	1	1	15797.5	0.233684	0.233291	-0.0862652	10	-0.537634	12	-2.01249e-05
2	0	0	1	1	15820.1	0.267584	0.267154	-0.0603809	10	-0.539282	12	-1.6131e-05
2	0	0	1	1	15842.7	0.301484	0.301118	-0.036955	10	-0.540374	13	-1.11278e-05
2	0	0	1	1	15865.3	0.335384	0.335001	-0.0156585	10	-0.540962	13	-5.2456e-06
2	1	0	1	1	15887.9	0.369284	0.368895	0.00406878	10	-0.541088	14	1.50095e-06
2	1	0	1	1	15910.5	0.403183	0.402818	0.0226197	10	-0.540782	13	9.1116e-06
2	1	0	1	1	15933.1	0.437083	0.436717	0.0436644	10	-0.540048	13	1.9069e-05
2	1	0	1	1	15955.7	0.470983	0.470534	0.0750127	10	-0.538725	13	3.5296e-05
2	1	0	1	1	15978.3	0.504883	0.504426	0.12806	10	-0.536498	12	6.45966e-05
2	1	0	1	1	16000.9	0.538783	0.538376	0.222828	10	-0.532574	12	0.000119965
2	1	0	1	1	16023.5	0.572683	0.572219	0.322478	10	-0.526447	12	0.000184528
2	1	0	1	1	16046.1	0.606583	0.606148	0.406144	10	-0.518119	12	0.000246183
2	1	0	1	1	16068.7	0.640482	0.640071	0.45134	10	-0.508345	12	0.000288889
2	1	0	1	1	16091.3	0.674382	0.673957	0.469431	10	-0.497914	12	0.000316376
2	1	0	1	1	16113.9	0.708282	0.70784	0.471562	10	-0.487246	12	0.000333791
2	1	0	1	1	16136.5	0.742182	0.741695	0.475717	10	-0.476436	12	0.000352837
2	1	0	1	1	16159.1	0.776082	0.775648	0.465246	10	-0.465804	12	0.000360867
2	1	0	1	1	16181.7	0.809982	0.809498	0.451235	10	-0.455413	12	0.000365274
2	1	0	1	1	16204.3	0.843882	0.843467	0.433765	10	-0.445389	12	0.000365867
2	1	0	1	1	16226.9	0.877781	0.877321	0.410371	10	-0.435842	12	0.000360027
2	1	0	1	1	16249.5	0.911681	0.911247	0.392122	10	-0.426759	12	0.00035732
2	1	0	1	1	16272.1	0.945581	0.945147	0.370045	10	-0.418159	12	0.000349747
2	1	0	1	1	16294.7	0.979481	0.978939	0.340353	10	-0.41014	12	0.000333185
2	1	0	1	0	16313.6	1.00783	1.00731	0.3229	10	-0.403854	12	0.00032526
2	1	0	1	0	16336.2	1.04173	1.04128	0.301878	10	-0.396808	12	0.000314339
2	1	0	1	0	16358.8	1.07563	1.07513	0.280474	10	-0.390233	12	0.000301545
2	1	0	1	0	16381.4	1.10953	1.10905	0.258596	10	-0.384152	12	0.000286795
2	1	0	1	0	16404	1.14343	1.14293	0.241779	10	-0.378475	12	0.000276336
2	1	0	1	0	16426.6	1.17733	1.17676	0.222417	10	-0.373235	12	0.000261732
2	1	0	1	0	16449.2	1.21123	1.21072	0.20485	10	-0.368403	12	0.000248015
2	1	0	1	0	16471.8	1.24513	1.24463	0.187487	10	-0.363973	12	0.000233351
2	1	0	1	0	16494.4	1.27903	1.27856	0.17074	10	-0.359937	12	0.000218301
2	1	0	1	0	16517	1.31293	1.31244	0.153542	10	-0.356268	12	0.000201514
2	1	0	1	0	16539.6	1.34683	1.34636	0.136432	10	-0.352984	12	0.000183687
2	1	0	1	0	16562.2	1.38073	1.38023	0.120484	10	-0.350074	12	0.000166295
2	1	0	1	0	16584.8	1.41463	1.41409	0.103782	10	-0.347534	12	0.000146757
2	1	0	1	0	16607.4	1.44853	1.44803	0.0888874	10	-0.345355	12	0.000128712
2	1	0	1	0	16630	1.48243	1.48192	0.0746631	10	-0.343507	12	0.000110645
2	1	0	1	0	16652.6	1.51633	1.51588	0.0613813	10	-0.341966	12	9.30465e-05
2	1	0	1	0	16675.2	1.55023	1.5497	0.0487088	10	-0.340722	12	7.54842e-05
2	1	0	1	0	16697.8	1.58413	1.58367	0.0377114	10	-0.339746	13	5.97224e-05
2	1	0	1	0	16720.4	1.61803	1.61754	0.0298281	10	-0.338987	13	4.82481e-05
2	1	0	1	0	16743	1.65193	1.65144	0.0250901	10	-0.338369	13	4.14347e-05
2	1	0	1	0	16765.6	1.68583	1.68529	0.022435	10	-0.337832	13	3.78094e-05
2	1	0	1	0	16788.2	1.71973	1.71919	0.0209198	10	-0.337342	13	3.59652e-05
2	1	0	1	0	16810.8	1.75363	1.75315	0.0200739	10	-0.336879	13	3.51926e-05
2	1	0	1	0	16833.4	1.78753	1.78704	0.0196224	10	-0.336428	13	3.50659e-05
2	1	0	0	0	16839.1	1.79631	1.79576	0.0197345	10	-0.336315	13	3.54383e-05